Time (s),Acceleration x (m/s^2),Acceleration y (m/s^2),Acceleration z (m/s^2)
6.00164394,0.7654920236892827,0.5933295138406758,-0.5662706197243716
6.0064067,0.9071105507746586,0.8437041904086348,-0.9206388091372393
6.011196127,1.0429686166807544,1.078507683031848,-1.2846154352581869
6.015972221,1.1777696092845429,1.3043209316717266,-1.6626494860550192
6.020735033,1.3168452634997037,1.5295929666771715,-2.0581270809360395
6.025524408,1.465878938139958,1.7642954064046965,-2.4729515401369837
6.030300502,1.6305841263578573,2.019459657248256,-2.907200735071367
6.035063315,1.8163493216662732,2.306609041997975,-3.3588826756630725
6.03985269,2.0278629732990194,2.6371045880065775,-3.823805406961789
6.044628783,2.268734530533516,3.021429347650197,-4.295571521766703
6.049391596,2.54112933228636,3.4684415365286227,-4.7657012630949716
6.054180971,2.8454361844057843,3.984631096928197,-5.2238816204163925
6.058957065,3.179986747236926,4.573417199144609,-5.658332331441471
6.063719877,3.5408452325531594,5.234525420430193,-6.056273567546873
6.068509252,3.9216853248114756,5.963482710056254,-6.4044745413459285
6.073285346,4.313768681850971,6.751265666124273,-6.689857526584836
6.078048158,4.706035865764433,7.584133112019997,-6.900128006401339
6.082837533,5.085316189589659,8.443667555738275,-7.024399056992212
6.087613627,5.436657878065671,9.307042026393528,-7.053776841666701
6.09237644,5.743774321641846,10.147519291429898,-6.981874497039392
6.097165815,5.989596300777106,10.9351799498163,-6.805224092780993
6.101941908,6.156914185660946,11.637864842522943,-6.523561107768039
6.106704721,6.229088625748896,12.222306131242245,-6.139963050089179
6.111494096,6.190803453276257,12.655410753237717,-5.660832864812011
6.11627019,6.028830669281855,12.905650200852973,-5.095727451877794
6.121033002,5.732774620656612,12.944502125211102,-4.457040720063983
6.125822377,5.29576094809469,12.74788258157966,-3.759558287459091
6.130598471,4.715035722687833,12.297503293224208,-3.0199068366260513
6.135361283,3.9924415172513994,11.582086549614548,-2.255925193589181
6.140150658,3.1347400651807327,10.59837162054867,-1.4859865283536022
6.144926752,2.15375567184674,9.35185107687935,-0.7283018409274155
6.149689565,1.0663196113919962,7.857183225242395,-0.00023429965191698582
6.15447894,-0.10599676275941923,6.138237902445642,0.6823477507723741
6.159255033,-1.337363736311349,4.227746924746727,1.305653985180731
6.164017846,-2.598383611398543,2.166547228581116,1.8584698000538842
6.168807221,-3.856973193382552,0.0024237121014738334,2.332550784549922
6.173583315,-5.079411202132435,-2.2114206685668534,2.7229005019490655
6.178346127,-6.23151304612952,-4.4182187644573006,3.0279225281587188
6.183135502,-7.279885878342786,-6.5597474421005115,3.249442107988705
6.187911596,-8.193208852695955,-8.57860131011847,3.3925972054091926
6.192674408,-8.943477793382337,-10.420526981892557,3.465603215086854
6.197463783,-9.507151050931686,-12.036701519515432,3.479400177516585
6.202239877,-9.866135222943901,-13.385834082955828,3.4471957362369925
6.20700269,-10.008556376553503,-14.435973532123784,3.3839207637990776
6.211792065,-9.929274244758114,-15.165917213203072,3.305617093509461
6.216568158,-9.630112418644773,-15.566136454699325,3.2287780196706923
6.221330971,-9.119795092533023,-15.6391606783732,3.1696624001877964
6.226120346,-8.413598635081641,-15.399392576500752,3.143602690997243
6.23089644,-7.53274253231071,-14.872359463131517,3.1643264920358005
6.235659252,-6.5035577360759795,-14.093438380684224,3.243310639080282
6.240448627,-5.356480248503821,-13.10612249437363,3.389186917823191
6.245224721,-4.124923558293103,-11.959921692510868,3.6072192340686153
6.249987533,-2.8440855131207545,-10.708009572890658,3.898873222662434
6.254776908,-1.5497438057599777,-9.404741098236991,4.261500076287596
6.259553002,-0.2770899291197221,-8.103169679591579,4.688156009512136
6.264315815,0.940355330037112,-6.85268942934944,5.167576727616486
6.26910519,2.071710437136862,-5.696918443845978,5.684322431556484
6.273881283,3.0895609046422954,-4.671923158490021,6.219103418059757
6.278644096,3.9706310948943675,-3.8048631827289174,6.749289493489203
6.283433471,4.696293314935056,-3.113111859230795,7.249598519877051
6.288209565,5.252914412015488,-2.6038815436369505,7.692950800992818
6.292972377,5.6320452336239235,-2.274355771601088,8.051467086358468
6.297761752,5.830461817567504,-2.112304534991671,8.297579152783838
6.302537846,5.85006929152706,-2.0971351881391507,8.4052136984567
6.307300658,5.69768051647091,-2.2013112381007316,8.35100318591027
6.312090033,5.384681859736088,-2.3920553923289054,8.115471839592638
6.316866127,4.926598490369844,-2.6332423956536415,7.684141732131841
6.32162894,4.342571567551329,-2.8873817062141827,7.0485031775201685
6.326418367,3.6547598600156856,-3.1175899234799695,6.206795779191699
6.33119446,2.8876787934982517,-3.289457770420695,5.164551622807905
6.335970554,2.0674906877249293,-3.3727257690089303,3.9348602568992024
6.340746648,1.2212609520494224,-3.342695764347048,2.5383260523089426
6.345522742,0.37619612109900974,-3.1813212497978576,1.0027018244171866
6.350285502,-0.4411193441449899,-2.877937056511879,-0.6378024066618784
6.355074929,-1.205469711221126,-2.4296074336019844,-2.3435207285190653
6.359851023,-1.8937196748081069,-1.8410899827500018,-4.070611919988154
6.364613783,-2.48547225655454,-1.1244305687422051,-5.772573203627533
6.36940321,-2.963653868657591,-0.29822055211831366,-7.401927231944394
6.374179304,-3.315007679563548,0.6134381012835924,-8.912010699470834
6.378942065,-3.5304771825370747,1.5822025971080973,-10.258784096896608
6.383731492,-3.6054634456543626,2.576928001751406,-11.402576662503941
6.388507585,-3.5399421194088343,3.5652034004113142,-12.309679278931052
6.393270346,-3.338430096465547,4.514912110007699,-12.953702001172758
6.398059773,-3.009796948463662,5.395744174885562,-13.316623463448169
6.402835867,-2.566922922912333,6.180594515823871,-13.389477335481871
6.407598627,-2.026212935109148,6.846788290199742,-13.172644978412833
6.412388054,-1.406983695271609,7.377085452145976,-12.675749864617176
6.417164148,-0.7307477947884838,7.760428215357707,-11.917173834139334
6.421926908,-0.020423530597258557,7.9924072532996355,-10.923234836809193
6.426716335,0.7004976976736077,8.075434409565208,-9.727079460031801
6.431492429,1.4087932609773817,8.018621077224715,-8.367351722722074
6.43625519,2.0823274457638257,7.837372052176413,-6.886703385584371
6.441044617,2.700814283851146,7.552714461324013,-5.330211522040745
6.44582071,3.2464959748873476,7.1903902136292,-3.743767272222498
6.450583471,3.7047112775263833,6.779748194189778,-2.1724962463652457
6.455372898,4.064332633354938,6.3524789442108105,-0.659266349019093
6.460148992,4.318056047234787,5.941239638103482,0.7566669818938736
6.464911752,4.462533773952404,5.578220602151679,2.0408349841926228
6.469701179,4.498346452698843,5.293706316399154,3.1645140595859917
6.474477273,4.4298182038704255,5.114683803774557,4.105442394703402
6.479240033,4.264685033922639,5.063549628542989,4.8482784368274885
6.48402946,4.013633354752241,5.156963547805845,5.384795299345846
6.488805554,3.6897311882018093,5.404892353309221,5.713815553645124
6.493568315,3.307779374162443,5.809881767269338,5.8409007852553145
6.498357742,2.883613541080956,6.366587557478088,5.777819282152627
6.503133835,2.433389507827994,7.061589441416367,5.541822860698242
6.507896648,1.9728850523690997,7.873502983443574,5.15476976662045
6.512686023,1.5168496150614286,8.773395691290185,4.642134557139419
6.517462117,1.0784306132990225,9.725504041792668,4.031947752457682
6.522224929,0.6687008096570257,10.688238383760355,3.353707880626735
6.527014304,0.2963058327565602,11.615452776395998,2.637306523320149
6.531790398,-0.03275521615756417,12.457947056285361,1.9120033994240964
6.53655321,-0.31520980708015994,13.165159052685304,1.2054837449938642
6.541342585,-0.5504532503107127,13.686996192835718,0.5430246247544419
6.546118679,-0.7403584473087635,13.975748088875632,-0.05320929021519316
6.550881492,-0.8889676010881687,13.988015427568724,-0.5647261603945141
6.555670867,-1.002084853397087,13.686585950206489,-0.9771153148588516
6.56044696,-1.0867933458533499,13.042185856674386,-1.2803006893742497
6.565209773,-1.1509235990138902,12.035034908018126,-1.4686414198300477
6.569999148,-1.202502249009412,10.656136102824494,-1.5408857437323793
6.574775242,-1.249210997258087,8.908236265724973,-1.4999877120769647
6.579538054,-1.2978850597304776,6.8064023182590745,-1.3527989081708856
6.584327429,-1.354078421202467,4.378169383516689,-1.1096495767056334
6.589103523,-1.4217198274985678,1.6632310402879733,-0.7838354815667844
6.593866335,-1.502878765934225,-1.2873413243402978,-0.391028585888759
6.59865571,-1.597654831950956,-4.412344468721765,0.05136866043722642
6.603431804,-1.7041970608253538,-7.642128900099349,0.5249040704682717
6.608194617,-1.818852295080146,-10.90067774699004,1.01076883274925
6.612983992,-1.9364338227635545,-14.108012057513525,1.490479512089492
6.617760085,-2.050593788288414,-17.182836593574148,1.9465256258441728
6.622522898,-2.1542757141445046,-20.045323772076742,2.3629610616241656
6.627312273,-2.2402173984821805,-22.619921046232587,2.7259206634385857
6.632088367,-2.3014701107868727,-24.838060050308812,3.024047292669892
6.636851179,-2.331898159651425,-26.640645331492653,3.248818703994481
6.641640554,-2.3266242068043206,-27.980207126281012,3.3947671248521534
6.646416648,-2.2823902901010347,-28.82261646122399,3.459587516294268
6.65117946,-2.197811806205757,-29.148281199944392,3.4441334345732684
6.655968835,-2.073510585060608,-28.952767242065566,3.3523024386514044
6.660744929,-1.912122493889628,-28.246818279203996,3.1908161071627057
6.665507742,-1.7181838394732791,-27.055778496697112,2.968902795683073
6.670297117,-1.4979086070570888,-25.41845332269312,2.6978941520469375
6.675073262,-1.2588748617707435,-23.38547154843543,2.390749080131223
6.679836023,-1.009643085810373,-21.017235767298132,2.061521283229551
6.684625398,-0.7593316100311286,-18.381565492478014,1.724788621368587
6.689401544,-0.5171746818700432,-15.551147657480227,1.3950640977658857
6.694164304,-0.2920874426087721,-12.600912400003317,1.0862091806025398
6.698953731,-0.09225962522717535,-9.605448608189771,0.8108703083149187
6.703729825,0.07520350602031925,-6.6365645796801385,0.5799588712557542
6.708492585,0.20457834651531862,-3.7610854095089494,0.40219378111092796
6.713282012,0.2917479469889839,-1.0389615545767183,0.28372394859932704
6.718058106,0.33434894096124024,1.4782563917881504,0.2278455689348336
6.722820867,0.33183884056688323,3.7485421647388324,0.2348260590480059
6.727610294,0.2854860651412802,5.740103397578709,0.3018428542248812
6.732386387,0.1982884694334137,7.431681456715082,0.42304119651904976
6.737149148,0.0748289449352244,8.812463959418706,0.5897107536228053
6.741938575,-0.0789211655919481,9.881646883897892,0.7905766268390247
6.746714669,-0.2558386220492969,10.64769441460228,1.0121962171912036
6.751477429,-0.44791184848747173,11.127352390760679,1.2394496313752172
6.756266856,-0.6465185543597545,11.344475416101213,1.4561079044316219
6.76104295,-0.8427052153442356,11.32872850463265,1.6454603727333763
6.76580571,-1.0274576348491078,11.114221905087437,1.7909801275110984
6.770595137,-1.1919537991431324,10.738132933607867,1.877004674961973
6.775371231,-1.327792652540162,10.239361838447758,1.8894077575452992
6.780133992,-1.42719507034881,9.65726057820844,1.8162377749556171
6.784923419,-1.4831759854075266,9.030464578299851,1.648298410489365
6.789699512,-1.489689081145815,8.395848658703427,1.3796479577989615
6.794462273,-1.4417474291817731,7.787619944438025,1.0079955061301054
6.7992517,-1.3355246981693765,7.236553118859671,0.5349746399030854
6.804027794,-1.1684419835970725,6.76936718153184,-0.033721314344117376
6.808790606,-0.9392449128754568,6.408238140072703,-0.6883542101693221
6.813579981,-0.6480745534116101,6.170438911189457,-1.4153128406074948
6.818356075,-0.29653393504057374,6.068096131453159,-2.1974425011549665
6.823118887,0.11225012498193909,6.108053463447686,-3.0145271729826324
6.827908262,0.5735725275015326,6.291832096927791,-3.843912787256744
6.832684356,1.0811076621048283,6.61568117383596,-4.6612537233982
6.837447169,1.6268864470794335,7.070713445477899,-5.441358685494529
6.842236544,2.201301284889817,7.643124213072333,-6.159106639370871
6.847012637,2.793148619949549,8.31449412795569,-6.790398818078575
6.85177545,3.3897190761086806,9.062178383146467,-7.313109143775099
6.856564825,3.976944575694694,9.859785913228109,-7.707992984159785
6.861340919,4.539610328450323,10.677752205541056,-7.959513168454008
6.866103731,5.061637115370689,11.48400807337919,-8.056542851708903
6.870893106,5.5264359448197204,12.244744223025155,-7.992907449116115
6.8756692,5.917333092547555,12.925267764021461,-7.767732976850164
6.880432012,6.218059031144567,13.490942186584569,-7.385576325915805
6.885221387,6.413290149720081,13.908197023572633,-6.856324347730733
6.889997481,6.489227760232775,14.145587650081863,-6.194862125287257
6.894760294,6.434194873914346,14.174879653276381,-5.4205245421252055
6.899549669,6.239227738550851,13.972126211465765,-4.556357435373174
6.904325762,5.898636307493798,13.51870138121248,-3.628224202842258
6.909088575,5.410505870187705,12.80224763595111,-2.663800409107086
6.91387795,4.777111249357222,11.817492983894082,-1.6915027319396176
6.918654096,4.00521549747637,10.566892027053266,-0.7393996971696755
6.923416856,3.106227101910622,9.061046824473685,0.1658496263233404
6.928206283,2.0961934539372034,7.318867678281246,0.9999860588221937
6.932982377,0.9956137645406642,5.367441098726472,1.7420317545869464
6.937745137,-0.17093838676324866,3.24158217041228,2.3750304752791416
6.942534565,-1.3753843279153375,0.9830610892600886,2.8866212707407253
6.947310658,-2.5868934723102375,-1.3604916551322057,3.2694275148454697
6.952073419,-3.7728024819906683,-3.736980670661041,3.52125094114327
6.956862846,-4.899672364980605,-6.091503604830972,3.6450679683916785
6.96163894,-5.9344457053845945,-8.368216242730568,3.6488328468542464
6.9664017,-6.845657443812099,-10.512332856055897,3.5450988173064624
6.971191127,-7.604645517076737,-12.47217550740361,3.3504745530771687
6.975967221,-8.186703137877622,-14.201175342843435,3.0849386518939435
6.980729981,-8.572113603741117,-15.65972378473013,2.7710396407379907
6.985519408,-8.747012103870167,-16.816773484515174,2.433012359708499
6.990295502,-8.704027160520594,-17.651098430513635,2.09584321316924
6.995058262,-8.442666340111108,-18.152139049899432,1.7843165297607846
6.99984769,-7.969425383909513,-18.320380055181232,1.5220725474331402
7.004623783,-7.297615515534198,-18.167234475652066,1.330704956234573
7.009386596,-6.446919062234158,-17.7144350240581,1.228923074405818
7.014175971,-5.442697477584318,-16.99296180235647,1.2318010267491084
7.018952065,-4.315087377340774,-16.04156141053958,1.3501339868996365
7.023714825,-3.0979287012674335,-14.904934999034928,1.5899197115633121
7.028504252,-1.8275744896185806,-13.631690255228285,1.9519820911121826
7.033280346,-0.5416342672659815,-12.272163732839797,2.431751884136538
7.038043158,0.722296987164044,-10.87622479130138,3.019217702450882
7.042832533,1.9278745860162492,-9.491170697081918,3.699057301308287
7.047608627,3.041159269880792,-8.159814622025086,4.450955196435691
7.05237144,4.03165269145158,-6.918855179674303,5.250107654683594
7.057160815,4.873181946904834,-5.797598783251273,6.067910316724274
7.061936908,5.544610410851174,-4.817085596885227,6.8728172265649485
7.066699721,6.0303607265237265,-3.9896473729070423,7.631353015715148
7.071489096,6.320743771461041,-3.3189022916178055,8.309252655195198
7.07626519,6.412094356537743,-2.8001693488479487,8.872695866971132
7.081028002,6.306720217577299,-2.4212641061033398,9.289596368393568
7.085817377,6.012675618547578,-2.163619790899822,9.530900065074306
7.090593471,5.543374749426722,-2.0036636390435443,9.571841624326233
7.095356283,4.91706317064427,-1.9143685790232543,9.3931060895682
7.100145658,4.156167881028765,-1.8668951850188618,8.981841817289327
7.104921752,3.2865482244720545,-1.8322383193654077,8.332473369538919
7.109684565,2.3366709034152486,-1.7827968294718395,7.447268220935116
7.11447394,1.3367329586552945,-1.6937925797339188,6.336619192065711
7.119250033,0.3177567907419005,-1.5444762827481853,5.019015174592491
7.124012846,-0.6893188486631138,-1.3190711868016394,3.520685572242902
7.128802273,-1.654528504350321,-1.0074207580802692,1.8749183962559104
7.133578367,-2.549727837087059,-0.6053221875732677,0.12106743713928561
7.138341127,-3.349378385159317,-0.11454309179796497,-1.6967204110465757
7.143130554,-4.031249478927071,0.45746646100803345,-3.5310116273610728
7.147906648,-4.577019101746972,1.0981409927347612,-5.3327668386565215
7.152669408,-4.9727572536469395,1.7906083688724215,-7.053125180594562
7.157458835,-5.209277443120863,2.5146932673877624,-8.645213186738573
7.162234929,-5.282344457976799,3.248061165195956,-10.065894188710336
7.16699769,-5.192729689826655,3.967444133618097,-11.277373208913094
7.171787117,-4.946109176373148,4.649888074250656,-12.248576184226232
7.17656321,-4.5528044180430545,5.273962261832434,-12.956232434456654
7.181325971,-4.027372107368597,5.820876065857425,-13.385606623788833
7.186115398,-3.38805598644801,6.275454135533636,-13.530850184879709
7.190891492,-2.6561213106885018,6.626929553633163,-13.394968827710047
7.195654252,-1.855098658212929,6.86952377619609,-12.98942779416544
7.200443679,-1.0099680966792197,7.002791913004253,-12.333436586317278
7.205219773,-0.14631661130164647,7.0317215746174115,-11.45296872423516
7.209982533,0.7104986322334431,6.966582820650619,-10.37957988686681
7.21477196,1.5361507261700245,6.822535562866959,-9.14909037635415
7.219548054,2.308080063569174,6.6190090821321235,-7.800196241597608
7.224310867,3.006145009258563,6.378876119091143,-6.373068700532645
7.229100242,3.613167685410323,6.127451268792271,-4.9079947895497655
7.233876335,4.11536090537022,5.891350040272885,-3.4441043794022512
7.238639148,4.502626814681009,5.697250727237227,-2.018220545282899
7.243428523,4.768722286933157,5.570605904359956,-0.6638622264129632
7.248204617,4.911290577163936,5.534353637081773,0.5895796196023898
7.252967429,4.931763130606006,5.607680133107855,1.71747852224117
7.257756804,4.835139703109722,5.8048854004703365,2.700414839947302
7.262532898,4.629658943921467,6.134401422985831,3.5244238200495484
7.26729571,4.326375157150127,6.598008424623845,4.181055591817792
7.272085085,3.93865991733293,7.190289061255312,4.66725911982107
7.276861179,3.4816494044935196,7.89835300883751,4.9851072175618585
7.281623992,2.97165962494845,8.701855611121452,5.141383824605423
7.286413367,2.425592035113967,9.573324236035543,5.147057697475139
7.291189512,1.8603514892049917,10.478795026303308,5.01666835547847
7.295952273,1.2922969516328064,11.37875111343548,4.767650567045517
7.3007417,0.7367431695997637,12.229341436699146,4.419622975138352
7.305517794,0.20752864562628773,12.983847455669052,3.9936648368650416
7.310280554,-0.28333805383911703,13.594353689134122,3.511602536771745
7.315069981,-0.725945216524771,14.013567603422654,2.995324785369178
7.319846075,-1.1126534429766308,14.196725372094562,2.466142472215207
7.324608835,-1.4381787202899623,14.10351289631823,1.9442061930196037
7.329398262,-1.6995858081473487,13.699926646875571,1.4479916445201166
7.334174356,-1.8961979642706852,12.95999675096428,0.993860473035941
7.338937117,-2.0294319245115737,11.867295612559575,0.5957018435731951
7.343726544,-2.102569386694187,10.416159442414578,0.2646580144986395
7.348502637,-2.1204779785796863,8.61255748729337,0.00893557496695911
7.353265398,-2.089295826394763,6.474554459966423,-0.16629729308022576
7.358054825,-2.016094404442612,4.032325508722953,-0.25892819102520115
7.362830919,-1.9085343511489372,1.3276997041507053,-0.2698340383294269
7.367593679,-1.774528399353743,-1.5867730125626163,-0.20273313833530182
7.372383106,-1.6219245330781038,-4.64921580909264,-0.06395922166025628
7.3771592,-1.458221007134181,-7.7902426813490795,0.13783755004973816
7.38192196,-1.2903229707266939,-10.93514119565552,0.3920555509013091
7.386711387,-1.12434808051203,-14.006341176469006,0.6865631355584212
7.391487481,-0.9654856445525255,-16.926072335087838,1.0081647561284202
7.396250294,-0.8179106475763873,-19.619099729060217,1.3430981415479002
7.401039669,-0.6847508504496747,-22.015417118806166,1.6775477142225792
7.405815762,-0.568102509854993,-24.052776075499,1.998158475435641
7.410578575,-0.46908847212262506,-25.67893390270795,2.292533468894802
7.41536795,-0.38795156200691566,-26.853516022549865,2.549696573469771
7.420144044,-0.32417618809498905,-27.54940754913508,2.7605014263287013
7.424906856,-0.276631591951437,-27.753612873300103,2.9179677158218116
7.429696231,-0.24373071386951156,-27.46754952029917,3.0175284985647517
7.434472325,-0.22359880771597232,-26.706771548493695,3.0571763979814457
7.439235137,-0.2142455026238698,-25.500146521808823,3.0375017376789
7.444024512,-0.2137330666483617,-23.888536781392332,2.9616209295373297
7.448800606,-0.22033253248000925,-21.92305862627617,2.8349981649636673
7.453563419,-0.2326586206654257,-19.663010660814244,2.6651675050637245
7.458352794,-0.24977454017905137,-17.173574073205153,2.461365974716566
7.463128887,-0.27125900488995763,-14.523392698762414,2.2340914062422996
7.4678917,-0.29723006097294047,-11.782139705126752,1.9946016351079163
7.472681075,-0.3283231979068331,-9.018171350377886,1.7543742215621594
7.477457221,-0.36562427421593136,-6.296357468813934,1.5245480619988223
7.482219981,-0.4105606599594279,-3.676164167383426,1.3153698748576135
7.487009408,-0.46475643421588947,-1.2100477058336976,1.1356693834264098
7.491785502,-0.529859360163788,1.0577993043357419,0.9923869009665099
7.496548262,-0.6073486855477263,3.092326454059817,0.8901758483055224
7.50133769,-0.69833364662452,4.868123605276942,0.8311004671918066
7.506113783,-0.8033529863133617,6.3695496093587325,0.814445682909455
7.510876544,-0.9221859264623324,7.590517185051185,0.8366518448944138
7.515665971,-1.0536849147097997,8.533971298778495,0.8913821115673969
7.520442065,-1.195640093885428,9.211107313570558,0.969724741324386
7.525204825,-1.3446847677332299,9.64038100251423,1.0605267129950644
7.529994252,-1.4962501070701248,9.846365256311655,1.1508491496311415
7.534770346,-1.644575926769267,9.858508118106604,1.2265291991682497
7.539533158,-1.7827825679042917,9.709843970984718,1.2728275838038339
7.544322533,-1.9030067656034642,9.435704741799293,1.2751362140312044
7.549098627,-1.9966019217998936,9.072471435889458,1.2197163074907689
7.55386144,-2.054400517310562,8.65639880385856,1.0944345747264232
7.558650815,-2.0670336044389037,8.222538082110747,0.8894634284965068
7.563426908,-2.025299550174352,7.803775104805395,0.5979109989412056
7.568189721,-1.920571572426447,7.429994123801535,0.21634810686081862
7.572979096,-1.7452312064611308,7.12737174899706,-0.254797668292551
7.57775519,-1.4931126815532845,6.917800770333117,-0.8110060693368003
7.582518002,-1.1599412905274447,6.818440364264618,-1.4436054389278232
7.587307377,-0.7437472527403847,6.841387326556452,-2.1399026517112856
7.592083471,-0.2452354277769254,6.993462403713847,-2.8835044992722563
7.596846283,0.33190929454847085,7.27610630909074,-3.6548240377604224
7.601635658,0.9808008392323138,7.685381314410811,-4.431755995902784
7.606411804,1.6912337223660847,8.212076054859768,-5.190496316536406
7.611174565,2.4496841801993954,8.841913006730403,-5.906472740407183
7.615963992,3.2394436930926465,9.555859632973096,-6.5553464420683065
7.620740085,4.040893483627454,10.330545123054264,-7.114039426583848
7.625502846,4.831923112043476,11.138784715784476,-7.561738965884887
7.630292273,5.588490007484126,11.95021260070629,-7.8808290377390575
7.635068367,6.285309907216958,12.73202225871583,-8.057699805154257
7.639831127,6.896661060196452,13.449809866792288,-8.08339006015694
7.644620554,7.3972780960820135,14.068512231381565,-7.95402481268279
7.649396648,7.763305124962184,14.553425887648649,-7.671021153973461
7.654159408,7.973272364759989,14.87128874610432,-7.241049634304087
7.658948835,8.009056770556171,14.991400159046398,-6.6757540930718715
7.663724929,7.856785050956802,14.886749692388438,-5.991248109212039
7.66848769,7.507637293157213,14.535119493450884,-5.207419242332592
7.673277117,6.958511236266423,13.920120338817082,-4.347081912438777
7.67805321,6.21251091878917,13.03211772651965,-3.4350256674814124
7.682816023,5.279228751434794,11.869002291382975,-2.49700781456676
7.687605398,4.174796796438067,10.436758897768073,-1.5587384671140925
7.692381492,2.921690998651558,8.749791427790596,-0.6449027129548436
7.697144304,1.5482811806407941,6.830965805704845,0.22174045836090306
7.701933679,0.08812961845567543,4.711342262158071,1.021149046130638
7.706709773,-1.4209483014108832,2.4295791200900005,1.7366522633277683
7.711485867,-2.9380368409437603,0.031004144681780064,2.355448968078202
7.71626196,-4.420450690532457,-2.43363475632037,2.8689386761380167
7.721038054,-5.825198045510598,-4.909710576669661,3.272880839737829
7.725800867,-7.110520950949561,-7.340503316857115,3.5673848119176395
7.730590242,-8.237450115111104,-9.669166927377267,3.7567387938315813
7.735366335,-9.171305757620402,-11.84079673892622,3.8490910134642085
7.740129148,-9.883073316839829,-13.804503830491775,3.8560004626276267
7.744918523,-10.350583914729594,-15.51539431190484,3.7918777692312653
7.749694669,-10.559435321311973,-16.9363494596005,3.6733391783465237
7.754457429,-10.503600393887394,-18.03950811903905,3.5184981070757497
7.759246856,-10.1856863981144,-18.80736582745919,3.3462193509990774
7.76402295,-9.616829006857582,-19.233424778325922,3.1753609083963052
7.76878571,-8.816227035907321,-19.322353438870703,3.02402772763578
7.773575137,-7.810345693590356,-19.089642397623102,2.908860518862273
7.778351231,-6.631835036117036,-18.560771763346658,2.8443810476996174
7.783113992,-5.318224738473967,-17.76993306591403,2.8424130562741934
7.787903419,-3.910465355185439,-16.75837323082445,2.9115952805048746
7.792679512,-2.451389944385621,-15.572448294978736,3.0570001519009824
7.797442273,-0.9841688136922763,-14.261489023300308,3.2798688599499743
7.8022317,0.4491750213836315,-12.87558882768446,3.577470630164297
7.807007794,1.8091305290538697,-11.46342615840857,3.94309139110512
7.811770606,3.059895347748388,-10.070229014736634,4.366154416420574
7.816559981,4.170368985101365,-8.735978930795964,4.832472933904943
7.821336075,5.1149203970635755,-7.493936520229346,5.3246319873273915
7.826098887,5.873920693525329,-6.369551409251139,5.822493918480596
7.830888262,6.434043069041726,-5.3797973602763145,6.303818608999635
7.835664356,6.788341204049047,-4.532949954707034,6.744986012179351
7.840427169,6.936124142829444,-3.8288007730215052,7.12180449956899
7.845216544,6.882650242751968,-3.259279904588473,7.410384209266065
7.849992637,6.638665599809197,-2.8094389822369754,7.58805008134227
7.85475545,6.219813793561121,-2.45873067609515,7.6342649008349115
7.859544825,5.645944204378048,-2.1825083401969545,7.531528858713391
7.864320971,4.940345809763295,-1.9536616634336506,7.26621935930274
7.869083731,4.128932463316865,-1.7443008731634997,6.829333497375739
7.873873158,3.2394043267234083,-1.5274031955301433,6.217096161765316
7.878649252,2.3004084419288775,-1.2783406091492193,5.431399332882354
7.883412012,1.3407194646272667,-0.9762169716722535,4.480042924658592
7.88820144,0.3884594001484915,-0.6049547235595762,3.376754420911333
7.892977533,-0.5296271462161231,-0.15408582973156082,2.140973350412018
7.897740294,-1.3888281054765141,0.38078240530445434,0.7973969447876321
7.902529721,-2.1670377821155506,0.9978393353059098,-0.6247053945724008
7.907305815,-2.8452400201514525,1.6892768686226027,-2.0923895266417416
7.912068575,-3.4078934709310125,2.441809551533313,-3.5701151635945516
7.916858002,-3.843213724199631,3.237474794209914,-5.020964274426316
7.921634096,-4.143348984109887,4.05466689430803,-6.407948721168915
7.926396908,-4.304447921855705,4.869348691711273,-7.695349270470719
7.931186283,-4.326620374206077,5.656377663006075,-8.8500233555013
7.935962377,-4.213793707015866,6.390879247269682,-9.842617318085102
7.94072519,-3.97346996233037,7.0495993168718485,-10.64862110128215
7.945514565,-3.6163914376991744,7.612170009430726,-11.249210442869447
7.950290658,-3.1561251821141316,8.062228514357473,-11.631834250633226
7.955053471,-2.6085799470032747,8.388336529703809,-11.790522491902165
7.959842846,-1.9914720089553621,8.584658392509539,-11.725910207891278
7.96461894,-1.3237583772168557,8.651367599587415,-11.444992675312115
7.969381752,-0.625056733050833,8.594763843840386,-10.960642366082528
7.974171179,0.08492905878840151,8.427095198730425,-10.290928913502437
7.978947273,0.7869605757765888,8.166092266241044,-9.458288932354662
7.983710033,1.462778455910327,7.834232667243128,-8.488594100447326
7.98849946,2.095565214492907,7.4577649655309175,-7.410164369618687
7.993275554,2.67034676914029,7.065530758227179,-6.2527694534440865
7.998038315,3.174324339173698,6.687632007826957,-5.046656641367111
8.002827742,3.5971304201801564,6.353997488983056,-3.821637163117175
8.007603835,3.9310045503140962,6.092907211717493,-2.6062572279022915
8.012366596,4.170886697164468,5.929536606790908,-1.4270737605003612
8.017156023,4.314428370048217,5.884582921452334,-0.3080488988605376
8.021932117,4.361923988968255,5.973034570639791,0.7299283976752693
8.026694877,4.31616752533502,6.203140114850052,1.6693906627664592
8.031484304,4.182241824283846,6.5756271804099296,2.496512138006218
8.036260398,3.9672501584484348,7.083213181775312,3.201207248172924
8.04102321,3.680001297629785,7.710439415943503,3.7771173775768534
8.045812585,3.330660599153038,8.433848313581377,4.221498839689884
8.050588679,2.930380277525205,9.222510738058679,4.5350268554990505
8.055351492,2.4909221017253307,10.038896645094372,4.721531296153352
8.060140867,2.0242853361610114,10.840068599761247,4.78767990756339
8.06491696,1.5423518488253543,11.579164059839336,4.742623805551158
8.069679773,1.0565590227957153,12.207119453492902,4.597618388559069
8.074469148,0.5776094850483298,12.674577390630876,4.365630711474833
8.079245242,0.11522476836800322,12.933908334822,4.06094207599993
8.084008054,-0.3220520753154495,12.94127019293227,3.698752376500284
8.088797429,-0.7270020770601628,12.658623983073598,3.2947908035289486
8.093573575,-1.0938234752252076,12.055621391953308,2.864936005787608
8.098336335,-1.4181736453641818,11.111280925860328,2.424847852607013
8.103125762,-1.697162857300682,9.815373689530308,1.9896125799955937
8.107901856,-1.9293043441788194,8.169447669969674,1.5734033422140181
8.112664617,-2.1144263377454116,6.187430706073627,1.1891589662129813
8.117454044,-2.25355258376862,3.895766899374893,0.8482849072511003
8.122230137,-2.3487583861021952,1.3330587243194991,0.5603818828091446
8.126992898,-2.4030094265751907,-1.4507929761220892,0.3330092370738738
8.131782325,-2.4199904654669955,-4.395937238989872,0.17149153654646418
8.136558419,-2.4039305415388594,-7.434372987147827,0.07877795079025739
8.141321179,-2.359430457464131,-10.492141740526367,0.05536433612941813
8.146110606,-2.2912971606876726,-13.49183260498869,0.09928732086841609
8.1508867,-2.204388175809517,-16.35530019571327,0.206197854622371
8.155649512,-2.1034677268633746,-19.00648106767931,0.3695185979408875
8.160438887,-1.99307501588011,-21.37418439556093,0.5806854802318261
8.165214981,-1.8774047686290969,-23.394729408593793,0.8294692251226214
8.169977794,-1.7602008494735155,-25.01430638242192,1.1043679872919887
8.174767169,-1.644665263758422,-26.190949990935703,1.3930576202153133
8.179543262,-1.5333866230899,-26.89603280668382,1.682881771279546
8.184306075,-1.4282934605025874,-27.11521131461425,1.9613605732035193
8.18909545,-1.330638072053156,-26.848785241719938,2.2166948219269407
8.193871544,-1.2410154689629727,-26.111461464066025,2.4382424958776987
8.198634356,-1.1594194773209485,-24.931544343424374,2.616946096198289
8.203423783,-1.0853342989435886,-23.349603129657595,2.7456920829071665
8.208199877,-1.0178556121629752,-21.41669212948879,2.8195870941790515
8.212962637,-0.9558315044852548,-19.19221903082757,2.8361392514135932
8.217752065,-0.8980111265712247,-16.741569978116438,2.7953365173758447
8.222528158,-0.8431884406228881,-14.133606323066783,2.6996178691252766
8.227290919,-0.7903296942029425,-11.438147674062577,2.5537371329396947
8.232080346,-0.7386757328224588,-8.723549618758094,2.3645237564261343
8.23685644,-0.6878132949538323,-6.054473219416121,2.1405493958041575
8.2416192,-0.6377124230956878,-3.489928125948965,1.8917136298771275
8.246408627,-0.5887296659737001,-1.0816530341361625,1.6287660088427107
8.251184721,-0.5415786475058266,1.1271226188684418,1.362784751471134
8.255947533,-0.4972708525749817,3.102512255716752,1.104634606460981
8.260736908,-0.4570302835773785,4.820397548912255,0.8644276600650308
8.265513002,-0.42218617713709194,6.266460641597318,0.6510111784664799
8.270275815,-0.39404841388506096,7.4358545923864385,0.47150589134024634
8.27506519,-0.3737707216819435,8.332556962495891,0.3309164456078493
8.279841283,-0.36220730571142656,8.96846170098184,0.23183312119202373
8.284604096,-0.3597691137184521,9.36227115324851,0.17424038900846778
8.289393471,-0.36628650437027416,9.53825302994775,0.1554436448648665
8.294169617,-0.3808855649444689,9.524926633887675,0.17012065765237744
8.298932377,-0.40188564109102826,9.353738850208682,0.21049913357042446
8.303721804,-0.4267256987061971,9.05778383754801,0.26665652095122505
8.308497898,-0.4519268415092286,8.670611633832717,0.32693294610019064
8.313260658,-0.4730975923735361,8.225160709884834,0.3784431486404562
8.318050085,-0.48498739117754475,7.752838593579684,0.40766863408799653
8.322826179,-0.4815921970837189,7.2827637624040955,0.4011071328778098
8.32758894,-0.45631418030172854,6.8411717328165995,0.34595299827870424
8.332378367,-0.40217533376259024,6.450979239262293,0.23077954966736067
8.33715446,-0.3120825005944189,6.131493039508729,0.04619275008829467
8.341917221,-0.1791388369018026,5.898244500480237,-0.21457480999885348
8.346706648,0.003005883611017131,5.762927854880409,-0.5551596875487551
8.351482742,0.23977645499571418,5.7334188768058905,-0.9756807236776935
8.356245554,0.5352780333895024,5.813851575742537,-1.4724931820614682
8.361034929,0.8919023280874397,6.004733108167297,-2.0381021930341463
8.365811023,1.3099522999795032,6.30308111423353,-2.6612473408171784
8.370573835,1.787305215850229,6.702572690692395,-3.3271629355298886
8.37536321,2.319134842133039,7.193699750181728,-4.018010699557298
8.380139304,2.897713515215205,7.7639311121088825,-4.713473566669781
8.384902117,3.5123136699651663,8.3978868511606,-5.391491325241076
8.389691492,4.149226075320283,9.077534761331371,-6.029111221012414
8.394467637,4.791908508557576,9.782421903594418,-6.603419676574272
8.399230398,5.421273956077451,10.489955807017925,-7.092515313472387
8.404019825,6.016121785078551,11.175749803503663,-7.476478821559046
8.408795919,6.553708882590932,11.814045128325755,-7.738292247495496
8.413572012,7.010450760998854,12.378218866448831,-7.864659282264757
8.418348106,7.362735385916477,12.841381744158884,-7.846679383255941
8.4231242,7.587825339899465,13.177063451368026,-7.680332344548073
8.42788696,7.664817295271971,13.359976044270779,-7.366736753927388
8.432676387,7.575622090788825,13.366838539531003,-6.912156568470524
8.437452481,7.305924433923403,13.177238625593109,-6.327745367114995
8.442215242,6.846078673642845,12.774500956199171,-5.629036500961878
8.447004669,6.191896305222698,12.146526094052644,-4.83520629813807
8.451780762,5.3452819092187545,11.286560125440769,-3.9681535950032596
8.456543575,4.314677165899966,10.193852597660836,-3.051450588531866
8.46133295,3.115277512430849,8.874160097554928,-2.1092270576124816
8.466109044,1.768992944653076,7.340054798679153,-1.1650525017526727
8.470871856,0.30413333790478025,5.611001862250266,-0.24087890433349504
8.475661231,-1.24519067677424,3.7131767997772496,0.6438988723495782
8.480437325,-2.839948016288502,1.6790038385732267,1.4732167398528782
8.485200137,-4.437331905194624,-0.45359112686100067,2.2349113994439955
8.489989565,-5.992138186185469,-2.6422046475520276,2.921060786404121
8.494765658,-7.45833206314906,-4.841232260174483,3.528081367883379
8.499528419,-8.790744738725119,-7.003355955296365,4.0565813806528075
8.504317846,-9.946829684382203,-9.08118471625755,4.510981815853847
8.50909394,-10.88839920823985,-11.028975606128986,4.898929453805615
8.5138567,-11.583256582974677,-12.804351293359355,5.230537992015284
8.518646127,-12.00663834701005,-14.36992307943559,5.517503356324251
8.523422221,-12.142386472295856,-15.694728140621784,5.772146479032361
8.528185033,-11.983781361834756,-16.75539681953197,6.006440316191559
8.532974408,-11.533983678316165,-17.536980099593148,6.231077535530713
8.537750502,-10.80605449327587,-18.033387482521604,6.454631651561963
8.542513315,-9.822547271382907,-18.24740950772935,6.682858113371251
8.54730269,-8.614689623478975,-18.190325076315567,6.91817349763282
8.552078783,-7.2211954928496835,-17.881119445420147,7.159340900327316
8.556841596,-5.6867677249622215,-17.345362200614446,7.401378282968952
8.561630971,-4.06036560696577,-16.61381399164673,7.635694514848851
8.566407065,-2.3933213728022458,-15.720845109672856,7.850445861253607
8.571169877,-0.7373938018158136,-14.702757392635553,8.031094340609544
8.575959304,0.8571538051123799,-13.596103275663154,8.16113921103337
8.580735398,2.3433692948153033,-12.436092297974117,8.22298423414291
8.585498158,3.679248104910744,-11.255166606601271,8.198896660948888
8.590287585,4.829129680167999,-10.081813755308412,8.072009467513588
8.595063679,5.7648070867487196,-8.939668358058968,7.827316534106013
8.59982644,6.466317938816828,-7.8469350709290175,7.452611260757666
8.604615867,6.922399544658616,-6.816145240337662,6.939322293242645
8.60939196,7.130605211817045,-5.854239708035926,6.283205170090052
8.614154721,7.097091571751562,-4.962951963981126,5.484855360545262
8.618944148,6.8360984239336,-4.139450169426968,4.550015993825521
8.623720242,6.369152818257069,-3.3771843575000284,3.4896623242485716
8.628483054,5.724037721729083,-2.666876859426731,2.3198544436332247
8.633272429,4.9335724629783195,-1.9975898701930765,1.0613597527073184
8.638048523,4.034257042289777,-1.3578039279841922,-0.2609430212527602
8.642811335,3.0648351927140625,-0.7364445717915132,-1.6188562912047848
8.64760071,2.0648316969672194,-0.12380104035674441,-2.9818209801149487
8.652376804,1.0731179314976285,0.4877100169676744,-4.3179987026982465
8.657139617,0.1265560932498115,1.1029718649272382,-5.59543175393662
8.661929044,-0.7412326248859988,1.7238098835466455,-6.7832289556554795
8.666705137,-1.5009371111656,2.3488597075229505,-7.852722694677997
8.671467898,-2.1284312058317227,2.9736596529362673,-8.778542188421847
8.676257325,-2.605430776293387,3.5909537558201468,-9.539550350249863
8.681033419,-2.919917574497316,4.1911810163437275,-10.11959691099449
8.685796179,-3.066322818908454,4.763117566812118,-10.508049085279605
8.690585606,-3.0454719718571894,5.2946318928559535,-10.700073280185045
8.6953617,-2.8643007537796272,5.773509132132448,-10.696656733591452
8.70012446,-2.535360713230837,6.18829878009251,-10.504375226945998
8.704913887,-2.0761401357264178,6.529140577009813,-10.134930074842407
8.709689981,-1.5082321951075293,6.788525596960545,-9.604492186767946
8.714452794,-0.856386674275315,6.961953303698952,-8.932901312754247
8.719242169,-0.1474842138953796,7.048450337514336,-8.142773712440352
8.724018262,0.5905269891316589,7.0509228517226745,-7.258571495326203
8.728781075,1.3296925829593413,6.976321151681732,-6.305682581480252
8.73357045,2.043073767231658,6.835603034835107,-5.309552820489358
8.738346544,2.7056941457425023,6.64349040378726,-4.2949025479885234
8.743109356,3.295380047951283,6.4180222121471475,-3.2850499144891847
8.747898783,3.7934668969487437,6.179915365086421,-2.3013536879840375
8.752674877,4.185349195037831,5.951753572478503,-1.3627797288864925
8.757437637,4.4608574122150335,5.757032055147122,-0.48558855325141687
8.762227065,4.614451464958357,5.61909312260281,0.31686338359948785
8.767003158,4.645227466278111,5.5599936585987635,1.034218910737298
8.771765919,4.556741812083052,5.599350178121196,1.6591234099049397
8.776555346,4.35666413410146,5.753210111976349,2.1871479542212393
8.78133144,4.0562778061696765,6.032999155694792,2.616643916922663
8.786094252,3.6698531161644743,6.444593793288669,2.9485402640092566
8.790883627,3.213923510993273,6.987565459626333,3.186094375387445
8.795659721,2.7064991596071124,7.654638287013666,3.3346069289095177
8.800422533,2.166254232022837,8.431396088580488,3.4011110932938418
8.805211908,1.6117246466880284,9.296266304268887,3.3940459290128673
8.809988002,1.0605515999868456,10.220799262959611,3.3229234038003064
8.814750815,0.5288030843697726,11.170250534438114,3.1979977345335686
8.819540242,0.03040104551642342,12.104462647402281,3.029944858930179
8.824316335,-0.42332389834835493,12.979030379032192,2.8295587440104564
8.829079096,-0.8239348464284318,13.746721575065616,2.60747000356681
8.833868523,-1.166039929669281,14.359113478878577,2.373890997392205
8.838644617,-1.4472917281251851,14.768393308534723,2.1383903128595465
8.843407377,-1.668241220090104,14.929261816011937,1.9096983783256494
8.848196804,-1.8320594990156422,14.800870290201116,1.695545002847962
8.852972898,-1.9441465458457732,14.348715406337723,1.5025289198521068
8.857735658,-2.011651355118008,13.546412920160737,1.3360189384840624
8.862525085,-2.0429314394483087,12.377270826365576,1.2000860533375217
8.867301179,-2.0469819963915143,10.835585522645287,1.0974658005555111
8.872077273,-2.0328657153282124,8.927590904520573,1.0295502436639303
8.876853367,-2.0091733270513257,6.672000199869384,0.9964091761350801
8.88162946,-1.9835426399924474,4.10009363491851,0.996840353539151
8.886405554,-1.962260113948239,1.2553214499753071,1.0284486978395087
8.891181648,-1.9499641843701316,-1.807589068803741,1.0877543228158342
8.895957742,-1.949463778591314,-5.024012604733986,1.1703287996245664
8.900720554,-1.9616789730192703,-8.321258335007691,1.2709582377691675
8.905509929,-1.9857037301089846,-11.620800494602715,1.383830498215735
8.910286075,-2.0189833443440373,-14.840829450957221,1.5027423338680161
8.915048835,-2.0575919379205088,-17.899025950627834,1.6213208489823583
8.919838262,-2.0965885973573424,-20.715445135821067,1.7332528781751
8.924614356,-2.1304252630729277,-23.215386109755475,1.8325158635874725
8.929377117,-2.1533761174569146,-25.332118532026076,1.913604007400284
8.934166544,-2.159957702811603,-27.009340756118807,1.9717430485193308
8.938942637,-2.1453116755989354,-28.203254541255525,2.0030857289070627
8.943705398,-2.1055276393781712,-28.88415882672304,2.0048786125249225
8.948494825,-2.037890873037277,-29.03748829608542,1.9755904896112708
8.953270919,-1.9410475570571069,-28.664250016120608,1.9149937500410175
8.958033731,-1.8150869659040585,-27.780841747743132,1.8241926382336853
8.962823106,-1.6615452298740747,-26.41826688314866,1.7055954740039658
8.9675992,-1.4833384980272455,-24.620791380154017,1.5628310069386462
8.972362012,-1.2846349351019806,-22.444115365590328,1.4006116777979294
8.977151387,-1.0706754755367776,-19.95315422755603,1.2245486326772979
8.981927533,-0.8475532101412387,-17.21953952177946,1.0409249746667126
8.986690294,-0.6219611339318782,-14.31895821917312,0.8564350766806289
8.991479721,-0.40091791554973877,-11.32844988995636,0.677898931197569
8.996255815,-0.19148133618442637,-8.323776109620319,0.5119615332239779
9.001018575,-0.00045901102057066887,-5.376965726077488,0.3647881669177394
9.005808002,0.1658741186754087,-2.5541247900831148,0.24176713718954607
9.010584096,0.3020423204238208,0.08641789992130475,0.14723188115349378
9.015346856,0.40361094647402934,2.49557837189947,0.08421441926986867
9.020136283,0.4673957498257911,4.634567281531783,0.0542416715017008
9.024912377,0.4916327813708051,6.475511052196413,0.057185219603486166
9.02967519,0.47610325029903533,8.001652151403567,0.09117364761251194
9.034464565,0.4222090770218508,9.207152875345605,0.1525746745144911
9.039240658,0.3329962226169817,10.096540861869125,0.23605194711623453
9.044003471,0.2131241708059358,10.683845269059685,0.3346986308170508
9.048792846,0.06878113789933606,10.991479942407564,0.4402468821017696
9.053568992,-0.09245429515798663,11.048933941605735,0.5433490077182362
9.058331752,-0.2618033411532951,10.891330680798125,0.6339227542123759
9.063121179,-0.4295260204460185,10.557914991848055,0.7015498958577281
9.067897273,-0.5852048421329205,10.090523127647721,0.735914263674172
9.072660033,-0.71806762448489,9.532084655900913,0.7272627297552361
9.07744946,-0.8173425787116805,8.925197964904067,0.6668705639499706
9.082225554,-0.8726375084900515,8.31081330371497,0.5474911466470976
9.086988315,-0.8743338254293287,7.7270494376501695,0.363769381693243
9.091777742,-0.813985041771149,7.20816255073198,0.11259842507609714
9.096553835,-0.6847084452032858,6.783679300797078,-0.20659937780281792
9.101316648,-0.48155776548709844,6.477700170278883,-0.5916841229167085
9.106106023,-0.20186382698997946,6.3083746148536965,-1.0377159730994276
9.110882117,0.1544704801836987,6.287546056985775,-1.5369879711851613
9.115644929,0.5847349579309509,6.420562451582665,-2.079178337254612
9.120434356,1.0832505797411864,6.706246809156667,-2.6516212483843487
9.125210398,1.6412950495652816,7.137021465240082,-3.23968965740472
9.12997321,2.2471274633362914,7.6991797588942195,-3.827278352400194
9.134762637,2.886121983815944,8.373298838373257,-4.397370396145521
9.139538731,3.541017509177865,9.13478726433934,-4.932665506134204
9.144314825,4.192286575630671,9.954560670699358,-5.416245025101961
9.149090919,4.818622245015213,10.799837753530518,-5.832245059542219
9.153867012,5.397536608627513,11.635047135916302,-6.166507285192006
9.158643106,5.906058969353301,12.422833127320072,-6.407175981222315
9.1634192,6.321515986997576,13.125145077651279,-6.545210201940474
9.168195294,6.622370381256035,13.704391029951081,-6.574781771487544
9.172958106,6.789089529720713,14.124631909922032,-6.4935332156130885
9.177747481,6.805010892807853,14.352787861971658,-6.302675285394748
9.182523575,6.657168128377306,14.359823932478276,-6.006912015322575
9.187286387,6.337040443647077,14.121878502204144,-5.614192420899681
9.192075762,5.841188306917644,13.621295009929224,-5.135300797059465
9.196851908,5.1717409313530744,12.847515858809693,-4.5833098763861315
9.201614669,4.336704698489711,11.797797229372705,-3.9729307965036234
9.206404096,3.3500668008591794,10.477705138926105,-3.319799967937391
9.21118019,2.2316748529085,8.901356765313121,-2.639745529584123
9.21594295,1.0068810205422607,7.091376984343645,-1.9480755045297493
9.220732377,-0.29405177520198056,5.07854832321848,-1.2589264637861983
9.225508471,-1.6367740385872156,2.9011430569276593,-0.5847059625544779
9.230271231,-2.983886049448757,0.60393881449611,0.06434513745624777
9.235060658,-4.296157173008969,-1.7630664778579,0.6804523741631161
9.239836752,-5.5338880499399385,-4.146208710754169,1.2584595946138601
9.244599565,-6.6583653912206895,-6.489932797419371,1.795831316309607
9.24938894,-7.633350200707858,-8.738725004202138,2.2925114511325426
9.254165033,-8.426533348041444,-10.839123917492017,2.7506514286625405
9.258927846,-9.01088838574181,-12.741719901144561,3.1742272155903337
9.263717221,-9.365851409937866,-14.403045797588932,3.568570229032692
9.268493367,-9.47826262033377,-15.787260789028041,3.939841144589607
9.273256127,-9.34301450947215,-16.86753579985191,4.294477539607381
9.278045554,-8.963366825743103,-17.62706241587764,4.638645974829057
9.282821648,-8.350907235788295,-18.05962679380266,4.977726749405903
9.287584408,-7.525157106844029,-18.169713770846528,5.315855660613901
9.292373835,-6.51284211548566,-17.972132646390598,5.655542212983853
9.297149929,-5.346865700575971,-17.491183108470032,5.997378410781708
9.301912742,-4.065038286186582,-16.75940562509071,6.33984706819555
9.306702117,-2.7086258339211873,-15.815983503222842,6.679233942590893
9.31147821,-1.320787420853382,-14.704882241756003,7.009644250944264
9.316241023,0.05502656361552616,-13.472824691918559,7.323121330022648
9.321030398,1.376645890592786,-12.167207258007494,7.609863106482003
9.325806492,2.6046570856693125,-10.834062759443428,7.858530227811433
9.330569304,3.7037285139558547,-9.516169927889683,8.05663777171207
9.335358731,4.643737388083503,-8.251398502713865,8.19102017211891
9.340134825,5.4006636004951405,-7.071363439332954,8.248356338855913
9.344897585,5.957227338207844,-6.000442938168441,8.215739029427857
9.349687012,6.30325929801403,-5.0551940209973525,8.081269589275298
9.354463106,6.435803369139694,-4.244177469252803,7.834656489132772
9.359225867,6.358961511267349,-3.5681823301574718,7.467793923769644
9.364015294,6.083499062438577,-3.0208200441692967,6.975295331393445
9.368791387,5.62623584142168,-2.589440561713643,6.354956249923566
9.3735542,5.009254212635677,-2.256308422892724,5.608121619356413
9.378343575,4.258959813314748,-1.999966275616404,4.739934616188743
9.383119669,3.405033913517216,-1.7967070690219935,3.759447478097232
9.387895762,2.479318349038756,-1.6220742931726257,2.6795795907983355
9.392671856,1.5146745684947267,-1.452312010041809,1.5169143000104137
9.397448002,0.5438575126526797,-1.2656926800624975,0.29133327258200215
9.402210762,-0.4015572124331768,-1.043660398403585,-0.9745045856272884
9.40700019,-1.292158017007756,-0.7717394479358157,-2.255824097410446
9.411776283,-2.101563777089947,-0.4401722914330349,-3.5265107126711905
9.416539044,-2.807147585417453,-0.04426644928292355,-4.759971673991133
9.421328471,-3.390599485089555,0.41555468284896296,-5.930043265018772
9.426104565,-3.8383162523152485,0.9339869140499417,-7.011901058433733
9.430867377,-4.141612697677305,1.5013421820762554,-7.982927196450155
9.435656752,-4.296755240334141,2.104271237660194,-8.823488346965815
9.440432846,-4.3048246412354745,2.726666409415071,-9.517580807133768
9.445195658,-4.1714207988372145,3.350692053464693,-10.053306158853621
9.449985033,-3.9062283885595894,3.957886670690941,-10.423152356237432
9.454761127,-3.522467572119317,4.5302800421902125,-10.624070313826314
9.45952394,-3.0362583948840327,5.051470688351187,-10.657352690066821
9.464313367,-2.4659301065278014,5.507612940206312,-10.528336734463878
9.46908946,-1.831307021372289,5.88826837991437,-10.245964471376498
9.473852221,-1.1530006977458007,6.1870829591769665,-9.822240051781032
9.478641648,-0.45173460934162435,6.402258515497822,-9.271625920112267
9.483417742,0.2522772286045242,6.536795569374271,-8.610417339456895
9.488180502,0.9398813639129153,6.598493119834906,-7.856129871336071
9.492969929,1.5934544782311382,6.599700548031936,-7.026927673426143
9.497746023,2.197284747000823,6.556826523748499,-6.141112899128699
9.502508835,2.737862247221344,6.489619762622954,-5.216688850930522
9.50729821,3.2040789203977265,6.420246310836839,-4.2710024888342915
9.512074304,3.5873412444904096,6.372197384122541,-3.320465888288406
9.516837117,3.881600958827628,6.3690702630200535,-2.3803515637758554
9.521626492,4.083311059647372,6.433271939999959,-1.4646533267184847
9.526402637,4.191315922669371,6.584700738221247,-0.5860024516018254
9.531165398,4.206685817033542,6.839464634304961,0.2443718465540536
9.535954825,4.13250719149401,7.208696252584221,1.0166485797555047
9.540730919,3.9736408437365025,7.697523286269328,1.722398214574849
9.545493679,3.7364603279256148,8.304249375154269,2.354552565409693
9.550283106,3.4285826329092353,9.019794266770953,2.907369997617512
9.5550592,3.0586022307334977,9.827433547195287,3.376403474018168
9.55982196,2.635838072151701,10.702867584863517,3.758477653923999
9.564611387,2.1701010910343292,11.614636910855504,4.051679634825514
9.569387481,1.6714874338428523,12.524887466419086,4.255365952380113
9.574150294,1.1502001378688609,13.390474453799115,4.370186113443541
9.578939669,0.6163995205886478,14.164378454763675,4.398120296476829
9.583715762,0.08008027427022542,14.797392602617196,4.34252607011168
9.588478575,-0.44902867348843584,15.240025513633306,4.208186283803387
9.593268002,-0.9615469584364505,15.444552030212062,4.001347944382701
9.598044096,-1.4485146209914987,15.367133229025272,3.7297401825060077
9.602806856,-1.9014597546136496,14.969919205031031,3.4025585727337178
9.607596283,-2.3124685078907814,14.223043402148638,3.0304032674071997
9.612372377,-2.674263181056711,13.106416181664635,2.625159708659549
9.617135137,-2.980292810145019,11.611228239266024,2.1998130717728346
9.621924565,-3.2248388246396402,9.74108159310983,1.76819097153835
9.626700658,-3.4031362069934032,7.5126771923076285,1.3446331873929167
9.631463471,-3.511508200056219,4.9560035762370385,0.9435920535059598
9.636252846,-3.5475101292041966,2.1139900878104316,0.579172506019505
9.64102894,-3.510075455182068,-0.9583896652589822,0.26462634067323215
9.645791752,-3.3996548852026285,-4.1955538774396475,0.011820739704628035
9.650581127,-3.2183374081324816,-7.523252012701376,-0.1692937290600522
9.655357273,-2.969940689917369,-10.860945392796769,-0.2711860197876737
9.660120033,-2.6600575940610733,-14.124541518996987,-0.2891855752529417
9.66490946,-2.296045886978776,-17.229372171582316,-0.2218271092562501
9.669685554,-1.8869496034034197,-20.093287049240278,-0.07106628438490228
9.674448315,-1.443343171422827,-22.639722611692534,0.15766157063260572
9.679237742,-0.9770932915360524,-24.800601559371074,0.45555816783503983
9.684013835,-0.5010388050220307,-26.51892300091438,0.8107598021362089
9.688776648,-0.028595346673770186,-27.750916814449937,1.2088065204765086
9.693566023,0.4267009779061545,-28.467657146420272,1.6332601467661305
9.698342117,0.8516893397690225,-28.656058028613888,2.066437806787864
9.703104929,1.2340920171919725,-28.31920697504541,2.4902206670009357
9.707894304,1.5630039545636347,-27.476028002931226,2.8868940490624406
9.71267045,1.829334117359334,-26.160301314158097,3.2399743058566775
9.71743321,2.026172327779209,-24.41910023276956,3.5349793390178506
9.722222637,2.149061010419808,-22.310734469220613,3.7601030499547567
9.726998731,2.196157840428751,-19.9023105277653,3.9067590771542773
9.731761492,2.1682818094605776,-17.267034125078474,3.9699656924764293
9.736550919,2.068841478675079,-14.481385709827329,3.948551560310417
9.741327012,1.9036502080550222,-11.622298979617112,3.8451709627084427
9.746089773,1.6806388633918823,-8.764464429584935,3.6661266477781163
9.7508792,1.4094816644214248,-5.977866446470212,3.421008162679039
9.755655294,1.1011551509794193,-3.32564452479442,3.122162889173818
9.760418106,0.7674534299536908,-0.8623481929027411,2.7840255354808745
9.765207481,0.420484701103297,1.367367458718629,2.4223391007798503
9.769983627,0.07217441951075665,3.3295819203368424,2.053305926762687
9.774746387,-0.2662006612181023,5.001483879250851,1.6927110996259462
9.779535815,-0.5844257760606427,6.371300017824922,1.3550620032317344
9.784311908,-0.8736905219500758,7.437816127951624,1.0527872093792299
9.789074669,-1.1268463802442643,8.209543914149304,0.7955352034512124
9.793864096,-1.3385702026656487,8.703598374043517,0.5896088636418799
9.79864019,-1.5054294264405041,8.944358111621575,0.43756539069253453
9.803403002,-1.6258497527997762,8.961984246287027,0.33800382466699697
9.808192377,-1.699990845999986,8.790872840544518,0.2855537313015447
9.812968471,-1.729540118353594,8.468111299740977,0.271069467995117
9.817731283,-1.7174386729629194,8.032001506840503,0.28202503228060843
9.822520658,-1.6675567809706946,7.520702215760133,0.30309522923648674
9.827296804,-1.584338699404929,6.97103122923237,0.316900126590658
9.832059565,-1.4724380780719504,6.4174549792246625,0.30488183399164426
9.836848992,-1.3363656196433797,5.8912801521969405,0.24827586071551844
9.841625085,-1.1801700560720478,5.420049739882442,0.12913395900711827
9.846387846,-1.007171919029729,5.027135016884723,-0.06864830694296026
9.851177273,-0.8197670476230111,4.731505961367244,-0.35834781435746954
9.855953367,-0.6193133348435647,4.547655890078286,-0.749522263692011
9.860716179,-0.4061099412361312,4.485651768121846,-1.2472566293312168
9.865505554,-0.1794732404989437,4.551279829141838,-1.8515891035764198
9.870281648,0.06209168355094487,4.746256704673416,-2.5571513497793243
9.87504446,0.32063083648226826,5.068478963325945,-3.353049344371338
9.879833835,0.5984048595876037,5.512288424475678,-4.223000910923335
9.884609929,0.8974940136390809,6.068736369563263,-5.145734628956551
9.889372742,1.219366872339392,6.725836305743549,-6.095642608240653
9.894162169,1.5644386392380414,7.468801700734423,-7.043667171764717
9.898938262,1.931647451294532,8.280271572830706,-7.958389327982652
9.903714356,2.3180780850119844,9.140532490610434,-8.807275585357564
9.90849045,2.7186619978324753,10.02774998087897,-9.558029714238668
9.913266544,3.125980555526805,10.918225219263887,-10.179988018732773
9.918029356,3.53019462980714,11.786693954609817,-10.645491042610441
9.922818731,3.919118583996188,12.606683791121597,-10.931161889861874
9.927594825,4.278450141004379,13.350943264714152,-11.019022085056651
9.932357637,4.592159932789732,13.991951820078748,-10.89738094389746
9.937147012,4.843035903488904,14.502514193164652,-10.561444583200768
9.941923158,5.013368527650305,14.856436241295508,-10.013606070197206
9.946699252,5.085753507168285,15.029272269805835,-9.263397594418407
9.951475346,5.043979823314335,14.999126635975324,-8.32710672837671
9.95625144,4.873963340050502,14.747485170613297,-7.227079459631005
9.9610142,4.564680107948,14.260045176871667,-5.99075082637401
9.965803627,4.10904954489571,13.527506985666564,-4.6494584081714105
9.970579721,3.504716126439246,12.5462858344687,-3.2371039725038027
9.975342533,2.7546793736233153,11.319100685083807,-1.78873414049277
9.980131908,1.8677259428924051,9.85539685093696,-0.3391122321421892
9.984908002,0.8586245227903072,8.171562151397909,1.0786491380988688
9.989670815,-0.2519461351683107,6.290901837684742,2.4343311274990285
9.994460242,-1.4377537422062399,4.243345784310697,3.7016725273433346
9.999236335,-2.6676574433080615,2.064872368856279,4.859210244558305
10.0039991,-3.9065301532398995,-0.20335316361496303,5.890864153178908
10.00878852,-5.1164317517239075,-2.5161127250416766,6.786246656079949
10.01356462,-6.257991494798207,-4.825512105484058,7.540690107494553
10.01832738,-7.29194393312696,-7.082553804540237,8.154997963318085
10.0231168,-8.180750460463608,-9.238843224831859,8.634937995443384
10.0278929,-8.890229218993548,-11.248351252700285,8.990508030349611
10.03265571,-9.391110392179428,-13.069145372081573,9.235016113584402
10.03744508,-9.660432936400126,-14.664995635912382,9.3840269558479
10.04222118,-9.68270354843089,-16.006762815736284,9.45423387092169
10.04698399,-9.450749739061632,-17.0734849096068,9.462319249546226
10.05177337,-8.966215920072147,-17.85309457572664,9.423866595972388
10.05654951,-8.239672809275339,-18.3427223936414,9.352383545632252
10.06131227,-7.2903337050220705,-18.54856694071822,9.258488649494884
10.0661017,-6.1453936610165805,-18.48534012849295,9.149305604959308
10.07087779,-4.839027355179883,-18.175322709161154,9.028097411637406
10.07564055,-3.411097484445213,-17.64708824021609,8.894159950516546
10.08042998,-1.9056375227118516,-16.933972470245337,8.742980231629302
10.08520608,-0.3691806570583133,-16.07237800671894,8.56664979462935
10.08996889,1.150989229676663,-15.100010698932406,8.35450935333912
10.09475826,2.60858835501528,-14.054144379977796,8.0939875628808
10.09953436,3.96001258256368,-12.970004883599744,7.77158544785927
10.10429717,5.165878876477827,-11.879353366729823,7.373949136733343
10.1090866,6.192370565359992,-10.809333960943555,6.888967572654088
10.11386269,7.012339068223854,-9.781632830729373,6.306829211918797
10.11862545,7.6061268801083095,-8.811976064233077,5.620972742401706
10.12341488,7.962089444832999,-7.909973664776773,4.8288718539334505
10.12819097,8.076806337365682,-7.0792973944241195,3.932603107103376
10.13295373,7.954984369660248,-6.318162423396644,2.939158509659054
10.13774316,7.609066503991612,-5.620067637022704,1.860479527056466
10.14251925,7.058570669411004,-4.974737843082849,0.7132056886089011
10.14728206,6.329191616088567,-4.369203542335727,-0.4818524224147322
10.15207144,5.451706631315452,-3.788950591680851,-1.7004900611262879
10.15684759,4.46073205160332,-3.2190728992054165,-2.916094812181999
10.16161035,3.3933817949013005,-2.6453658516608294,-4.10078991510617
10.16639977,2.287881372417811,-2.055305857943232,-5.226671893449049
10.17117587,1.1821908593121118,-1.4388713972250153,-6.2670734701604704
10.17593863,0.11268811603393272,-0.7891724212264767,-7.197779975750673
10.18072805,-0.8870406388268112,-0.10286706028826513,-7.998128682441536
10.18550415,-1.7872616889225073,0.6196433808421562,-8.65192588964692
10.19026696,-2.5629721627113464,1.3742387815318,-9.148126197054077
10.19505634,-3.194570252598865,2.1533113798148977,-9.481232138875908
10.19983243,-3.668300832946029,2.946182633538452,-9.651389827785133
10.20459524,-3.9764695662985043,3.739677858404875,-9.664176566185805
10.20938467,-4.117428162574721,4.51882579054858,-9.530097996474764
10.21416076,-4.095342527637976,5.26764701788391,-9.263833251606277
10.21892352,-3.9197635814507894,5.969993614002713,-8.883284528794716
10.22371295,-3.6050271081926106,6.610402121263357,-8.40850057575147
10.22848904,-3.16951387933261,7.174923063121508,-7.860550413803593
10.2332518,-2.6348044562188124,7.651892189015275,-7.260423768136293
10.23804123,-2.024764686874731,8.032611447047055,-6.6280285521204165
10.24281732,-1.3645981543372023,8.311911075519895,-5.981344429148504
10.24758014,-0.6799008583145295,8.488568117342018,-5.3357763636673265
10.25236951,0.004248667385739288,8.565561070181765,-4.703734681979199
10.25714566,0.6641336474854652,8.550145311250096,-4.094449955434149
10.26190842,1.2781514489986596,8.45373942523764,-3.514013353551349
10.26669785,1.827452149603577,8.291618667665672,-2.9656172475087756
10.27147394,2.2964461791800237,8.082418532681183,-2.4499579422175537
10.2762367,2.673168964073477,7.84745870809027,-1.965753532632441
10.28102613,2.949495734173923,7.609905416144496,-1.5103258077205568
10.28580222,3.1212050719883453,7.3937979316357225,-1.0801960913935855
10.29056503,3.187895362015234,7.222972477862243,-0.6716503253863214
10.29535441,3.152763892273919,7.119923201650431,-0.2812372387665235
10.3001305,3.022263684830154,7.1046450400210475,0.09382650986242051
10.30489332,2.8056578288196907,7.19350666027181,0.4553602067690437
10.30968274,2.5144948088114765,7.398203083037911,0.8040387090821972
10.31445884,2.162030795933827,7.724837012997061,1.1393266700290678
10.3192216,1.7626259587486361,8.173175317226534,1.4595198579985906
10.32401102,1.3311415570301606,8.736122571818601,1.761881206322946
10.32878712,0.8823630222129624,9.399447247901872,2.0428557122073934
10.33354993,0.4304715864599143,10.141788075123632,2.298345915988786
10.3383393,-0.01141649498754871,10.934958599448112,2.5240282300168118
10.3431154,-0.43162826343968536,11.744557191617478,2.715689690701468
10.34787821,-0.8202196815746876,12.530878063442715,2.869564693163144
10.35266758,-1.1691631855033076,13.25010656055239,2.982651926405233
10.35744373,-1.4724366566144942,13.855769519694041,3.0529930958019964
10.36220649,-1.7260179728503946,14.300399252397757,3.079897138272083
10.36699592,-1.9277935624046425,14.537358236510624,3.064096499401124
10.37177201,-2.0773930647589047,14.522761388560266,3.007825572819369
10.37653477,-2.1759651549182717,14.21742439281357,2.9148154453906208
10.3813242,-2.225911689007639,13.588760501622572,2.7902034388961012
10.38610029,-2.230598501725708,12.612544968367251,2.6403603636576314
10.39086311,-2.1940613905328306,11.274466213726706,2.4726426915684963
10.39565248,-2.1207250660130734,9.571386233036502,2.2950808434257013
10.40042858,-2.0151511768351367,7.512239782936225,2.1160183382171502
10.40519139,-1.8818289989524284,5.1185125664356885,1.9437195688583386
10.40998082,-1.7250191081722854,2.4242528430379053,1.7859663643693187
10.41475691,-1.5486564726511454,-0.5244116824257617,1.6496651897719967
10.41951967,-1.356315087642531,-3.6702597099423104,1.5404876874726119
10.4243091,-1.1512317236881486,-6.946450856821635,1.4625669799375711
10.42908519,-0.9363817646306887,-10.278451628369734,1.4182702353711272
10.433848,-0.7145956864232251,-13.586352564402013,1.4080639961993202
10.43863738,-0.48870074074801884,-16.787494441633914,1.4304827843258134
10.44341347,-0.26166919982237635,-19.79930211251281,1.4822044853751117
10.44817628,-0.036752508098800124,-22.542209211273857,1.558229397120183
10.45296571,0.18241962738360307,-24.94254699683569,1.652154509743643
10.4577418,0.3917942607455751,-26.93526727417134,1.7565303351854702
10.46250457,0.5869188520793551,-28.466373416167908,1.8632835243421977
10.46729399,0.7630408430853866,-29.494945088187045,1.9641841046437991
10.47207008,0.9152812092415131,-29.994660716382366,2.051331871225829
10.47683285,1.0388699736888514,-29.954745841731672,2.1176333203833586
10.48162227,1.1294225653816534,-29.380303798230653,2.1572394954667278
10.48639837,1.1832294978733517,-28.292016062019286,2.1659166215963612
10.49116118,1.1975293215997,-26.725231389381253,2.1413252192307333
10.49595055,1.170736538786951,-24.728493514068987,2.0831889700882575
10.50072665,1.1026017565889394,-22.361584593944052,1.993341385101073
10.50548946,0.9942896945646377,-19.69318382012626,1.875645741504242
10.51027889,0.8483701450751863,-16.79825616395027,1.7357912579947634
10.51505498,0.6687258747597082,-13.755294417617534,1.5809755425230494
10.51981774,0.46038843844065647,-10.643538536809807,1.4194895913283572
10.52460717,0.22931741256252106,-7.5402904744762385,1.2602268299335213
10.52938326,-0.017859189036125392,-4.518431220992285,1.11214176928993
10.53414608,-0.2741250436491443,-1.6442308167587842,0.983686718398983
10.53893545,-0.5323585861556267,1.024477086180237,0.882256526568226
10.54371154,-0.7856028336465929,3.439705721612039,0.8136713953855849
10.54847436,-1.0273077467443852,5.5642823231721295,0.7817263404665773
10.55326378,-1.2515333136067401,7.372364948857606,0.7878329498053354
10.55803988,-1.4531043786725066,8.8495221648806,0.830774843779035
10.56280264,-1.6277114587347454,9.99240640655973,0.9065929325930372
10.56759207,-1.7719552772087617,10.808066417294121,1.0086104739824806
10.57236816,-1.8833363202627347,11.312955194135391,1.1276013558909974
10.57713097,-1.9601941643734688,11.531697112352417,1.252098260140273
10.58192035,-2.001604436683404,11.495681377421404,1.3688306896754827
10.58669644,-2.0072438604923466,11.24154889759934,1.463276540162435
10.59145925,-1.9772357520899433,10.809636495543835,1.520305225087198
10.59624868,-1.9119894575448475,10.242436619299857,1.5248855557206336
10.60102477,-1.8120474927901142,9.583122986373429,1.4628278421618524
10.60578753,-1.6779535929722498,8.874183554328049,1.3215271989305735
10.61057696,-1.5101535632016887,8.156192514035046,1.0906739443827995
10.61535305,-1.3089388478015511,7.46674326358994,0.7628973543007858
10.62011587,-1.0744401797392438,6.83955507458472,0.3343108752481744
10.62490524,-0.8066756054892374,6.303757833746186,-0.19506983157942395
10.62968134,-0.5056536895164391,5.883352156880541,-0.821060060593869
10.63444415,-0.17152891629287698,5.596836563766516,-1.5352087235280218
10.63923352,0.19519759186794863,5.456989409944924,-2.324882017974844
10.64400967,0.5934427113895934,5.470790916930675,-3.1735321156064913
10.64877243,1.0212854130681774,5.6394698285130005,-4.061146946749894
10.65356186,1.4757072652364527,5.958659744860415,-4.964869105753877
10.65833795,1.9523483342700878,6.418651767148393,-5.859764025825948
10.66310071,2.4452985367990645,7.004732391079367,-6.719710133982903
10.66789014,2.9469444587186775,7.697598258953692,-7.518376944906965
10.67266623,3.4478904390538103,8.473842054089584,-8.230251244254392
10.67744233,3.936970304175996,9.306506152211007,-8.83166692302577
10.68221847,4.4013625716744835,10.165702320628286,-9.30179094428394
10.68699451,4.826817328954292,11.01929652064375,-9.623516641328804
10.69175733,5.1979975001557035,11.833657542170485,-9.784216349023684
10.69654675,5.498931081282772,12.574466708883012,-9.776308631261859
10.70132285,5.713564453746076,13.207583303754538,-9.59760179755052
10.70608561,5.826400464991529,13.699956891223685,-9.251386072608556
10.71087503,5.823199004735752,14.020573633491097,-8.746262226171382
10.71565113,5.691712627173108,14.141419225984606,-8.095713298283355
10.72041394,5.4224255287473655,14.03843632056823,-7.317444979360881
10.72520332,5.009260971594017,13.692449413015549,-6.432535927211282
10.72997946,4.450220211202879,13.09002547422275,-5.464450195963861
10.73474222,3.747915412267276,12.224234588440785,-4.437969950875506
10.73953165,2.9099601811558147,11.095272037880335,-3.378108232615448
10.74430774,1.949184388000621,9.710902126571193,-2.3090591906219404
10.7490705,0.8836450158972142,8.086685078438705,-1.2532375108309652
10.75385993,-0.2635880741968907,6.245952108766406,-0.23045061514832543
10.75863602,-1.4648834003759272,4.219500652271926,0.7427623417782041
10.76339884,-2.688737155152628,2.0449918118341386,1.6536007624685938
10.76818821,-3.9006893648001606,-0.23395491814076233,2.493268420480536
10.7729643,-5.0644428784299516,-2.568959271922753,3.257030920741401
10.77772712,-6.143148289714738,-4.908342895997272,3.94407030317312
10.78251654,-7.100805733882375,-7.198812264127461,4.557150947342806
10.78729264,-7.903723790456465,-9.387299840165364,5.1021187484055295
10.7920554,-8.521967279008575,-11.422885978549283,5.58726243171307
10.79684482,-8.930720528004406,-13.258711670250133,6.022571733435802
10.80162092,-9.111491824363334,-14.853784839984908,6.418931620124511
10.80638373,-9.053089169788745,-16.17458221887246,6.787294114569791
10.81117311,-8.752307526844644,-17.196355729518494,7.137869087633141
10.81594925,-8.214282862101149,-17.904066433524818,7.479372501332398
10.82071201,-7.4524870962344085,-18.29288911850577,7.81836556860082
10.82550144,-6.488358751706934,-18.36825497048077,8.158712069801327
10.83027753,-5.350584829543383,-18.145426810904862,8.501174716941128
10.83504029,-4.074068597821669,-17.64862916213457,8.843165813832435
10.83982972,-2.6986341434234316,-16.90978180453578,9.178662720867248
10.84460582,-1.2675307345531122,-15.96690841078928,9.498294333566255
10.84936863,0.17419221145063274,-14.862309559303919,9.789600209663206
10.854158,1.5813654691165007,-13.64060079236204,10.037458638525559
10.85893415,2.9103624031366393,-12.346720919315562,10.2246737613223
10.86369691,4.1206745674488365,-11.024013616920447,10.332705059459188
10.86848634,5.176338883952106,-9.712477175218092,10.342515500440387
10.87326243,6.047164083586714,-8.447263938259585,10.235507747234877
10.87802519,6.709714742912584,-7.257493768811815,9.99451149630417
10.88281462,7.148022633273938,-6.165426012200025,9.604779658836119
10.88759071,7.354006734664482,-5.186013259266264,9.054947224923252
10.89235352,7.327594794003043,-4.326838984796454,8.337904705296204
10.8971429,7.076550454422852,-3.5884210436742827,7.451538381154991
10.90191904,6.616020507106069,-2.9648450679437848,6.399292421114115
10.9066818,5.9678264784409345,-2.4446768460893704,5.190513311063439
10.91147123,5.159533318401889,-2.0120913722600795,3.84054492125445
10.91624732,4.223335159884842,-1.6481487770398255,2.370552743334832
10.92101008,3.19480373144294,-1.3321438867594848,0.8070681656895854
10.92579951,2.1115487876404573,-1.0429565398954899,-0.8187421353862525
10.93057561,1.0118416824242598,-0.7603336492652558,-2.47206099690182
10.93533842,-0.06674709245813963,-0.46604090059033926,-4.115622948409948
10.94012779,-1.0886477783442878,-0.144831520488158,-5.711081639925652
10.94490394,-2.0214837482986514,0.21480867658623765,-7.220477300945001
10.9496667,-2.8371164681271384,0.62016728919413,-8.607729314997698
10.95445613,-3.512508873750712,1.0740752944123537,-9.840073469861167
10.95923222,-4.03037963006115,1.5749394075093275,-10.889362638274694
10.96399498,-4.379628179296452,2.1170216208306507,-11.733154204190516
10.96878441,-4.555518930416268,2.6909388200849627,-12.35551848595685
10.9735605,-4.559622543822196,3.2843460090252727,-12.747520584074113
10.97832332,-4.399522834161035,3.8827601918150894,-12.9073527860025
10.98311269,-4.08830850756263,4.470478214840345,-12.8401226996566
10.98788884,-3.6438784577845027,5.03154036076911,-12.557328986533834
10.9926516,-3.0880965007794776,5.550691707151936,-12.076077865908333
10.99744102,-2.4458357189832816,6.014294901277498,-11.418107325167256
11.00221712,-1.7439541947401924,6.411150970180025,-10.608691921817169
11.00697988,-1.0102433973605724,6.733189112337721,-9.675500079480893
11.0117693,-0.2723884823395609,6.975992157787002,-8.647469257945902
11.0165454,0.4430231980690435,7.1391315169324265,-7.553753860929962
11.02130821,1.1114126134729403,7.226293812901264,-6.422787761778765
11.02609758,1.7110097805994016,7.245190708912911,-5.2814893067255255
11.03087373,2.2235201908032236,7.207253292203008,-4.154622899105172
11.03563649,2.634637226899415,7.127122298996459,-3.0643189411653795
11.04042592,2.934386252608844,7.0219549929306595,-2.029743998713644
11.04520201,3.1172921537483678,6.910578191039485,-1.0669062291728104
11.04996477,3.182368873393094,6.812524348390278,-0.18857753853877504
11.0547542,3.132936684581831,6.746993398452995,0.5956868351514669
11.05953029,2.976280165849972,6.731786916582764,1.2794494746107825
11.06429311,2.723166570014419,6.78226295922967,1.8592287961312683
11.06908248,2.3872500080968093,6.910359598852821,2.33428789087939
11.07385863,1.9843912250552604,7.123732821869326,2.7063863066852796
11.07862139,1.5319254998765248,7.425050279373991,2.9795054203203466
11.08341082,1.0479122939761103,7.811476622934821,3.1595568863037142
11.08818691,0.5503997489243162,8.27437907635453,3.254082614018822
11.09294972,0.05673511699682014,8.799273740657519,3.2719536644193155
11.0977391,-0.41705114255084685,9.366024158434486,3.2230742773825147
11.10251519,-0.8567643581622468,9.949294144247368,3.118095924947439
11.107278,-1.2504498903582082,10.519247107993957,2.9681448803042674
11.11206743,-1.5886708416676485,11.042474362212923,2.7845653752495787
11.11684352,-1.8646538813966143,11.483125527266598,2.5786790757703617
11.12160628,-2.074304357899533,11.804205447797068,2.361560426682853
11.12639571,-2.216098198347548,11.968994320070951,2.143826508249371
11.1311718,-2.290863946177529,11.94254129692331,1.9354395380724143
11.13593462,-2.301473394276099,11.693176957730834,1.745520165585753
11.14072399,-2.252463405346603,11.193986949534207,1.5821703230869395
11.14550008,-2.1496144810157185,10.42418801916151,1.4523056189038581
11.1502629,-1.9995133004842027,9.370348688249125,1.3614990107449856
11.15505233,-1.809126687957868,8.027400013101134,1.3138396336915554
11.15982842,-1.5854132171306452,6.399387196713083,1.311812933978952
11.16459118,-1.3349958991084792,4.499920225696847,1.3562103037608053
11.16938061,-1.0639151596554584,2.3522911035154586,1.4460777428374376
11.1741567,-0.7774756930600067,-0.010763511131844039,1.578713210536176
11.17891951,-0.48019396726419505,-2.5476626399886366,1.7497209613680895
11.18370889,-0.1758454293010811,-5.208938666301187,1.953128291278484
11.18848503,0.13239776986681542,-7.938531988256838,2.1815661390360024
11.19324779,0.44175587068425676,-10.67538731807241,2.4265105458860643
11.19803722,0.7495820996168838,-13.355301778067288,2.6785778422537927
11.20281332,1.0530851034212325,-15.912961650934902,2.9278632928428707
11.20757608,1.3490667100273095,-18.284093444633374,3.1643111056272293
11.2123655,1.6337084825836659,-20.407646593882294,3.378102851350267
11.2171416,1.902436965332825,-22.227920197154912,3.560050618957807
11.22190441,2.149890323233987,-23.69654511365583,3.7019800149967597
11.22669378,2.3699986155955743,-24.774235907860557,3.797086504898433
11.23146993,2.5561772802184657,-25.432234760494037,3.840247332079593
11.23623269,2.7016202972900585,-25.65338143317478,3.828271183100774
11.24102212,2.7996679389031303,-25.43275914103192,3.760069376322453
11.24579821,2.8442156130528096,-24.777884949825385,3.6367356084948743
11.25056102,2.8301260647556092,-23.70843413823462,3.4615258063411836
11.2553504,2.753607496452962,-22.25550980186504,3.2397349072842667
11.26012649,2.6125248789429545,-20.460490599301426,2.978473001243689
11.2648893,2.4066200847790276,-18.37350952898091,2.6863488121350945
11.26967873,2.137627038382819,-16.05163346567666,2.3730736083468265
11.27445483,1.8092789528822468,-13.556825576809723,2.049003022341207
11.27921759,1.4272141871685107,-10.953779946131577,1.7246377868459286
11.28400701,0.9987942813982161,-8.307719707316327,1.4101069741575236
11.28878311,0.5328520844706327,-5.68224719411253,1.1146588382758553
11.29354592,0.03938987273811324,-3.137327751116252,0.8461846720993079
11.29833529,-0.47075251526378153,-0.7274787040621548,0.610800114845039
11.30311139,-0.9862407255050369,1.4997776244535688,0.41250606280805974
11.3078742,-1.4955834522416374,3.505152209151718,0.2529478195801665
11.31266363,-1.9874505668937623,5.25848930221718,0.1312865497859727
11.31743972,-2.4509608765873456,6.739313463407051,0.04419176341092252
11.32220248,-2.87593168610077,7.937023243531271,-0.014042198131557722
11.32699191,-3.253085384558462,8.850744041323706,-0.0512585494033663
11.331768,-3.574211160538155,9.488863831846308,-0.07708785809147227
11.33653082,-3.8322825841464003,9.868284642469801,-0.10249903319224983
11.34132019,-4.021534092919703,10.013429706730305,-0.13926991844398592
11.34609634,-4.13750128675588,9.955051155592768,-0.19939977693481067
11.3508591,-4.177031306910786,9.728886015329559,-0.2944889722848809
11.35564852,-4.1382704234542755,9.374209362894147,-0.43511325948844687
11.36042462,-4.020636298794747,8.932332990526719,-0.6302212119421456
11.36518743,-3.8247822523571164,8.445096120108303,-0.8865833020798995
11.3699768,-3.552560234785498,7.953391850982066,-1.2083198898629606
11.3747529,-3.206988138658684,7.495769380183525,-1.5965327904672824
11.37951571,-2.7922255382157304,7.107147847243225,-2.0490612253856932
11.38430509,-2.313559982779452,6.8176731480030135,-2.5603779382597724
11.38908123,-1.777403631603945,6.651744411583126,-3.121635281746091
11.39384399,-1.1912974618403913,6.627232166542617,-3.7208644260562904
11.39863342,-0.5639177328830025,6.754905603271146,-4.34332382976905
11.40340951,0.09492290220018398,7.038081778993804,-4.971986097335603
11.40817232,0.7742890603226993,7.472505068592836,-5.588145656144384
11.4129617,1.4621616380311901,8.046460563924157,-6.1721236089258475
11.41773779,2.1455130791457964,8.741120381318176,-6.704040903013728
11.42250061,2.81042924746012,9.53111688156912,-7.1646268230069285
11.42729003,3.4422867346301067,10.385331602151709,-7.536026946413146
11.43206613,4.025991976604308,11.267883251791451,-7.802573264303817
11.43682889,4.546285230768225,12.139292473486854,-7.951479313378407
11.44161832,4.988108427516653,12.957795352063298,-7.973425087746086
11.44639441,5.337031383476197,13.680772003783542,-7.863000478102963
11.45115722,5.579726156420987,14.266251276915392,-7.618982291365745
11.4559466,5.704474779092394,14.674447875625127,-7.244428499902788
11.46072274,5.701691544231583,14.869284337185727,-6.746583639198972
11.4654855,5.564437659056539,14.819847454617593,-6.136600083897489
11.47027493,5.288903605487035,14.50172715085836,-5.429090058960743
11.47505102,4.874833070335564,13.898185715836185,-4.641531788853159
11.47981384,4.325861995720112,13.001106988679739,-3.7935597247537327
11.48460321,3.6497472943590004,11.81167877392905,-2.9061732419010013
11.4893793,2.858462192145209,10.340767729615573,-2.000900664872642
11.49414212,1.968139048227935,8.608954248496946,-1.098956127893859
11.49893154,0.9988458280750439,6.646205423451917,-0.22042582206651884
11.50370764,-0.025810940481050048,4.491176856725737,0.6164821612336252
11.5084704,-1.0792560940739344,2.1901485311634126,1.3960937480169393
11.51325982,-2.1326793123722108,-0.20438420468314827,2.1058045941855603
11.51803592,-3.1559135733058112,-2.6354267958123323,2.7364752580871268
11.52279873,-4.11843065967661,-5.0434541364636365,3.282671818531669
11.52758811,-4.990416858426245,-7.368560727979918,3.7427446039797285
11.5323642,-5.743884065313479,-9.552706479648522,4.118744464624057
11.53712701,-6.353765265670856,-11.54196002357155,4.416182706178585
11.54191644,-6.79893966080462,-13.288633160444002,4.64364726463355
11.54669253,-7.063132554650154,-14.753197546086435,4.812293627655256
11.55145529,-7.135639348417814,-15.905879583252409,4.935233898938794
11.55624472,-7.0118317982483145,-16.72784241222571,5.026850788668953
11.56102082,-6.693417343380788,-17.21188423809377,5.102065020127649
11.56578363,-6.18843737677651,-17.36260826667527,5.175584801266892
11.57057305,-5.511006134542053,-17.1960491170791,5.261164939247369
11.57534915,-4.680806868113679,-16.738771571919912,5.370901324630755
11.58011191,-3.722374836263674,-16.026487739502944,5.514584391063455
11.58490134,-2.664206467968064,-15.1022660038746,5.6991331618229
11.58967743,-1.537740333556367,-14.01442765365088,5.92812976562336
11.59444024,-0.3762583551414911,-12.814243385310807,6.201472732379064
11.59922962,0.7862446196459117,-11.553551070725614,6.515165685720261
11.60400571,1.916177613335421,-10.282417899078357,6.861255847503819
11.60876852,2.981416227613852,-9.046964434784034,7.227933663666307
11.61355795,3.9522769668705466,-7.887455981436235,7.599800578625052
11.61833404,4.802375775597875,-6.836749034632009,7.958306471794963
11.6230968,5.509350452456406,-5.9191589385529015,8.28235167555503
11.62788623,6.0554333294585305,-5.149790632275098,8.549041112727128
11.63266232,6.427866620188421,-4.534349057608326,8.734570309116124
11.63742514,6.6191579521123565,-4.0694207772946855,8.815215295982899
11.64221457,6.627177785811447,-3.7431948673601165,8.768391187750998
11.64699066,6.455103794780297,-3.5365702980265596,8.573737979434185
11.65175342,6.111220002642338,-3.424579722503538,8.21418732969605
11.65654285,5.608580732350452,-3.3780465565719435,7.676961218300866
11.66131894,4.964551380737651,-3.365383918903495,6.95445275076436
11.66608175,4.200239833015312,-3.3544406244365876,6.044941271671668
11.67087113,3.3398340831748143,-3.3143009293297685,4.953098457663118
11.67564727,2.409863375230583,-3.216950791308232,3.6902491965749973
11.68042337,1.4384018745750902,-3.038733448021535,2.274360722895386
11.68519946,0.45423536282559007,-2.7615303472175885,0.7297454193003893
11.68997555,-0.5139874514969055,-2.3736190285537364,-0.9135235924420704
11.69473837,-1.4385967691163088,-1.8701766369595962,-2.62047023542151
11.69952774,-2.293714181517308,-1.2534155862269238,-4.352318013420798
11.70430384,-3.056013293742233,-0.5323557479302714,-6.0677947082377015
11.70906665,-3.7054061965076484,0.27774534640134135,-7.724584271672828
11.71385608,-4.2256339948512895,1.1562671784377792,-9.280860815902296
11.71863217,-4.604740563911452,2.0783552172799924,-10.696832305740223
11.72339493,-4.835410387485847,3.0162428951806746,-11.936217689176626
11.72818436,-4.915154079206767,3.9406977952473823,-12.967581634255891
11.73296045,-4.846329405293883,4.822519414540779,-13.765457064382758
11.73772326,-4.635991676160331,5.634015872232677,-14.311198446268602
11.74251264,-4.295575198376189,6.350390640910064,-14.59352790973992
11.74728878,-3.8404163347471814,6.9509772216668075,-14.608759096070578
11.75205154,-3.2891373426091097,7.420268841175131,-14.360706193467005
11.75684097,-2.6629173320229973,7.748700919217998,-13.860304600024335
11.76161707,-1.984681720210768,7.933155612841387,-13.124983397022811
11.76637988,-1.278244361697594,7.977169735814036,-12.177838133861643
11.77116925,-0.5674373706512459,7.890839429333074,-11.046655959869364
11.77594535,0.12473709513336145,7.690426825674272,-9.762844860944991
11.78070816,0.7769007901536609,7.397685338957913,-8.360315737866442
11.78549758,1.37000970023329,7.038930889113716,-6.874361341235263
11.79027368,1.887955065959781,6.643896052992689,-5.340570561366335
11.79503644,2.3180339252128075,6.244412540518012,-3.7938109107027573
11.79982587,2.6512732296841586,5.872974192489334,-2.2673065629027978
11.80460196,2.8825975673971893,5.561237592083391,-0.7918340634446288
11.80936477,3.0108370904533754,5.338520146942177,0.6049473614834537
11.81415415,3.0385791247913136,5.230356011177238,1.8990193289880746
11.81893029,2.9718737589107374,5.257168479094238,3.0703757761360415
11.82369305,2.819810083982076,5.433113618039333,4.103242512013105
11.82848248,2.5939853286277796,5.765144132437888,4.9861510527877995
11.83325858,2.3078935843698916,6.252335035328774,5.711878704293603
11.83802139,1.976263902622899,6.885503936259251,6.277271801142079
11.84281076,1.6143791024045753,7.647148913270297,6.682972713116207
11.84758686,1.237406608478574,8.511716276798072,6.933073409209853
11.85234967,0.8597710922941878,9.446199297116928,7.0347189290882
11.8571391,0.49459574689042335,10.411057405703854,6.997683112727032
11.86191519,0.15323489347169983,11.361433769493736,6.833936564417316
11.86667795,-0.15508446068246584,12.248637778299045,6.557223345423191
11.87146738,-0.4235002451154249,13.021848208449898,6.182658628636058
11.87624347,-0.647626405816199,13.629982979582524,5.726354879428983
11.88100628,-0.8255379645413731,14.023672871562091,5.2050794423722
11.88579571,-0.9576366438233576,14.157269688669647,4.635942099806229
11.8905718,-1.0464092500142037,13.990814518300484,4.036107578634202
11.89533456,-1.0960959082107735,13.491889277260862,3.422525422493743
11.90012399,-1.1122892196414849,12.637274969441078,2.8116683737263903
11.90490009,-1.1014882791766063,11.41434322612427,2.2192706180861492
11.9096629,-1.0706331128709747,9.822113910781598,1.6600590357834593
11.91445227,-1.0266454023052187,7.8719208885476615,1.1474739258597173
11.91922842,-0.9760003532677368,5.587640416579033,0.6933802615061849
11.92400451,-0.924352307409945,3.005451806023717,0.30777588253990146
11.92878061,-0.8762333170741015,0.17311769031700308,-0.0014915420816813386
11.9335567,-0.8348395933742292,-2.851209110815014,-0.22898214082014964
11.93831951,-0.8019157209705648,-6.000624209537231,-0.37187584022395637
11.94310889,-0.7777410358737876,-9.201506478946309,-0.4301167887855024
11.94788498,-0.7612167750913171,-12.37587910188433,-0.4064690544584606
11.95264779,-0.7500466679886724,-15.444008023657112,-0.3064663428789389
11.95743722,-0.7409976782183846,-18.32713353066433,-0.1382452743282539
11.96221332,-0.7302218761443503,-20.950220085027304,0.08773975322151793
11.96697608,-0.713615475747419,-23.244605075864072,0.3591133758299776
11.9717655,-0.6871877749570667,-25.150429522021398,0.6620729491498979
11.9765416,-0.6474120110051068,-26.618743044504427,0.9819571890744189
11.98130441,-0.5915324944237353,-27.613191037891248,1.3038620318377276
11.98609378,-0.5178075665643609,-28.111212765182763,1.6132721203531457
11.99086993,-0.4256749399800293,-28.104703542571265,1.8966749890522032
11.99563269,-0.3158335175333834,-27.60012055106117,2.1421262344141665
12.00042212,-0.1902427475474798,-26.618038391431597,2.3397372191782733
12.00519821,-0.05204631215760352,-25.192185715367497,2.4820615029440094
12.00996102,0.09456883285255242,-23.36801681887209,2.564361723075636
12.0147504,0.24456447890403496,-21.200890993119057,2.58474478761672
12.01952654,0.3922797712522459,-18.753946980813758,2.544159793089442
12.0242893,0.5316825628814408,-16.095769579509916,2.4462597961466823
12.02907873,0.6566313771579483,-13.297949980795927,2.2971351173168535
12.03385482,0.7611379134697968,-10.432640837016562,2.1049319211077377
12.03861764,0.8396218516972316,-7.570201651058101,1.8793751893335335
12.04340701,0.8871510137161501,-4.777020551560775,1.6312197412093608
12.04818311,0.8996608316707848,-2.113585708842969,1.3716564742262307
12.05294592,0.8741478097756502,0.3671354987507607,1.1117032608081585
12.05773535,0.8088324064322394,2.6209680138641516,0.8616107189704917
12.06251144,0.7032874899081248,4.613426845330223,0.6303122886342029
12.06727425,0.5585291436589206,6.320233308989337,0.42494574720825795
12.07206363,0.3770670888975845,7.727457721535727,0.2504696602534155
12.07683972,0.1629124280901642,8.831310434085545,0.10939353275171458
12.08160253,-0.07845908322565036,9.637614737532415,0.001634897655630761
12.08639196,-0.34018936137422623,10.16100416926342,-0.07548944279218493
12.09116805,-0.6141661796550251,10.423892924448774,-0.12713702989712047
12.09593082,-0.8911964564280728,10.455271426771136,-0.16068337752411138
12.10072024,-1.1612227797211856,10.289379803538258,-0.18534662096233576
12.10549634,-1.4135801634413327,9.964310340004403,-0.21170950030950098
12.11025915,-1.6372888758153004,9.52058637769529,-0.2511595952834193
12.11504852,-1.8213779832013988,8.999760076141177,-0.3152724880671269
12.11982467,-1.955232992223935,8.443065518839774,-0.4151653518343527
12.12458743,-2.028959686044877,7.890157341616476,-0.5608502705601957
12.12937686,-2.0337550312204264,7.3779588635707265,-0.7606173209745253
12.13415295,-1.9622749887923845,6.939637976257429,-1.0204770139946102
12.13891576,-1.8089882624807054,6.6037240444951,-1.3436900226725248
12.14370514,-1.570504455485622,6.393374930606333,-1.7304091687232126
12.14848123,-1.245864744041594,6.325800023915924,-2.1774544284303885
12.15324404,-0.8367829876801631,6.41184281524723,-2.6782363801325
12.15803347,-0.34782521664624844,6.6557250042830365,-3.222837267340771
12.16280956,0.21348424539603933,7.054953192446843,-3.7982519696725583
12.16757238,0.8366410311940659,7.600388650045962,-4.388783959467637
12.17236175,1.508233091003417,8.276480157302103,-4.976584074015109
12.17713785,2.212115010727773,9.061659196073775,-5.542312932791936
12.18190066,2.9296895728648953,9.928895534901223,-6.065901340827731
12.18669008,3.6402986173895275,10.846409289823796,-6.527377301819863
12.19146618,4.321721394453353,11.77853272411762,-6.907723576566267
12.19622894,4.9507741704273425,12.686711328036035,-7.1897263231589195
12.20101837,5.503999980229929,13.5306291428467,-7.358773506885917
12.20579446,5.958432302724867,14.269438005261787,-7.403561749243969
12.21055727,6.292411323638444,14.863064634459853,-7.316672434904024
12.2153467,6.486426646980874,15.27356360877318,-7.094982615181716
12.22012279,6.523956161592944,15.466478691195181,-6.739883825562156
12.22488555,6.3922675967787885,15.412170077962948,-6.257292195651411
12.22967498,6.083147386415678,15.08706134725803,-5.657445331387488
12.23445108,5.593521005701649,14.47475752570542,-4.954494121494376
12.23921389,4.925930086926418,13.566985093643265,-4.165909627687887
12.24400326,4.088834448354889,12.364306211803157,-3.31173565076199
12.24877941,3.0967117165921945,10.876563210039059,-2.4137258570632505
12.25354217,1.9699334532346948,9.123015569312352,-1.4944101836932377
12.2583316,0.7344045135362315,7.132140266466253,-0.5761384402270557
12.26310769,-0.579038374543253,4.941077353326004,0.3198505032014896
12.2678705,-1.935462317682453,2.5947158422274863,1.1742877901361366
12.27265988,-3.2968903205298035,0.14443010234700757,1.9706205078294001
12.27743597,-4.623539872412835,-2.3535063721736873,2.6956098890036833
12.28219878,-5.875206460764794,-4.839785360882229,3.3397555011891313
12.28698821,-7.0127394686629545,-7.2541442529090645,3.897528281083124
12.2917643,-7.999548496677193,-9.53758312728675,4.367404756843912
12.29652712,-8.803071003928752,-11.634624384762732,4.75170438118626
12.30131649,-9.396128141410262,-13.49550909867142,5.056241489646143
12.30609258,-9.758095808516384,-15.078217732881175,5.28981277225454
12.3108554,-9.875823440649238,-16.35020347486182,5.463549638608254
12.31564483,-9.744244536131678,-17.289735670769158,5.590171508236888
12.32042092,-9.366640109424527,-17.886768851908343,5.683180140058978
12.32518373,-8.754537552581121,-18.14327819514625,5.756036460332917
12.32997311,-7.92725041522592,-18.073032741318322,5.821360250401145
12.3347492,-6.9110867872029695,-17.700810912892244,5.890190007459847
12.33951201,-5.738273032630899,-17.061096327471958,5.971335806184812
12.34430144,-4.445654034629322,-16.196322993940672,6.0708524858715425
12.34907753,-3.073240183257642,-15.154765307581613,6.191654274787898
12.35384029,-1.662675136888847,-13.988188002713176,6.333285314582373
12.35862972,-0.25569743367171416,-12.749383250842072,6.491853767988729
12.36340582,1.1073359583790559,-11.48972595502392,6.660130596516626
12.36816863,2.3888043277431104,-10.256874145653988,6.827807931331029
12.37295805,3.555007070133081,-9.092729922083373,6.98190637285653
12.37773415,4.57714000022573,-8.031758714536144,7.107315597008596
12.38249691,5.432040417818256,-7.099742145283611,7.18744833071006
12.38728634,6.102689832456496,-6.313013990846311,7.20498408341667
12.39206243,6.5784746160598875,-5.678201298199681,7.142675964856165
12.39682524,6.855214431643724,-5.192465183745602,6.984191441033508
12.40161467,6.934975888060279,-4.844209758489521,6.714955937916771
12.40639076,6.825694559712889,-4.614204343926451,6.32296680101472
12.41115352,6.54063246474393,-4.4770448239620935,5.7995443672809115
12.41594295,6.097700523560202,-4.402865500022915,5.139987021029121
12.42071904,5.518676645094068,-4.35920374603055,4.34409835916634
12.42548186,4.828350150543183,-4.31291631606602,3.4165572255530887
12.43027123,4.053622477594697,-4.232048196705024,2.3671055472010414
12.43504738,3.2225927059586867,-4.08756194099495,1.2105346722618129
12.43981014,2.3636545417022226,-3.8548467384686704,-0.033541781855127066
12.44459956,1.5046290789367818,-3.5149411727487694,-1.341131894002325
12.44937566,0.6719549891540377,-3.055420728942916,-2.6845198353465456
12.45413847,-0.1100451509147676,-2.470919659988463,-4.0331140005008175
12.45892785,-0.8198067771484941,-1.763275855581602,-5.354461754032951
12.46370394,-1.4390609764085083,-0.9413059852026385,-6.615393649041832
12.46846675,-1.9532582345677603,-0.020235596169822418,-7.783250874188004
12.47325618,-2.351871304553812,0.9791756649041399,-8.827142047650097
12.47803227,-2.6285725265846467,2.0317605607185336,-9.71916986390052
12.48279509,-2.781283076931196,3.109259373816138,-10.435565141745268
12.48758446,-2.8120938248936507,4.181753916969225,-10.957666342150397
12.49236055,-2.7270600529142963,5.219147898482805,-11.272687730046533
12.49712337,-2.535875529562442,6.192622127414813,-11.374230116346181
12.50191279,-2.2514353906396067,7.075997754678979,-11.262504632058377
12.50668889,-1.889301661638471,7.846948531061684,-10.944260501188461
12.5114517,-1.467089409703377,8.488013004792988,-10.432428950983528
12.51624108,-1.0037948392216476,8.987368702066203,-9.745513748444846
12.52101717,-0.5190888764453337,9.339341832636386,-8.906772182307007
12.52577998,-0.03260098862476275,9.544637416125529,-7.943238071315363
12.53056941,0.4367816875062252,9.610285653709962,-6.884641160425591
12.5353455,0.871575283835128,9.54931073869923,-5.762276126023259
12.54010832,1.2562967971255536,9.380138019869785,-4.607870483827767
12.54489769,1.577976924968076,9.125764408605116,-3.45249503917622
12.54967378,1.8265695014396879,8.812725035917323,-2.325554068342461
12.5544366,1.995242474077617,8.469896265471737,-1.2538858971381763
12.55922602,2.080539735945555,8.127181058987945,-0.2609983661008505
12.56400212,2.082408199791247,7.814127147483914,0.6335421015573156
12.56876488,2.00409007647898,7.55853127701352,1.4145546824596267
12.5735543,1.851886099729601,7.3850838264560865,2.071514055407842
12.5783304,1.6348010704679246,7.314107285286747,2.598644281658017
12.58309321,1.3640882190192254,7.360439467268238,2.994840826235158
12.58788264,1.0527131945320196,7.53250802287812,3.2634307077289937
12.59265873,0.7147617737381005,7.831636939845178,3.4117862454712333
12.59742154,0.3648175164853206,8.251618449945086,3.4508127416442296
12.60221092,0.017336529471240775,8.778575268352046,3.394334445520176
12.60698701,-0.31395377960907844,9.391128575505896,3.258406098838977
12.61174982,-0.6166065369764248,10.060876834979464,3.0605791250112038
12.61653925,-0.8799349717257171,10.753179681579859,2.8191520478554604
12.62131535,-1.0954004099254435,11.428230001408568,2.552434028552044
12.62607811,-1.25689375245574,12.042386278948012,2.2780485764112144
12.63086753,-1.360900496738477,12.549726650508601,2.0123016581820368
12.63564363,-1.4065447855587347,12.903776242867929,1.7696347824042447
12.64040644,-1.3955135716218536,13.059350664943471,1.5621793731429972
12.64519587,-1.331867513270815,12.974451333604181,1.3994240781464018
12.64997196,-1.2217504009337414,12.612143014602653,1.2880017823701566
12.65473472,-1.0730135180150862,11.942340872734002,1.2315982206808522
12.65952415,-0.894775176414959,10.943433713309354,1.2309794043626918
12.66430024,-0.6969385915629212,9.603672141732021,1.284130781219951
12.66906305,-0.48969313686588156,7.92225518338628,1.3864972964822087
12.67385248,-0.28302468436021416,5.910056558660625,1.5313104371429374
12.67862858,-0.08626004706575696,3.5899423118711153,1.7099860047871491
12.68339134,0.09233158569902752,0.9966447691396457,1.912574760662875
12.68818076,0.24586084279599504,-1.8238263725977877,2.1282470918814473
12.69295686,0.3690493711821615,-4.815237033960433,2.3457922643141162
12.69771967,0.45836117928080733,-7.912627431607024,2.554112534282933
12.7025091,0.5120317267981902,-11.044217578532088,2.7426924693935493
12.70728519,0.5299991163609904,-14.133660262870633,2.90202459820516
12.71204795,0.5137482410140832,-17.102562758466263,3.0239744472992975
12.71683738,0.4660843697999533,-19.873181419276545,3.1020715504328154
12.72161347,0.3908568369684119,-22.37117984498825,3.131718071851095
12.72637628,0.29265579455024177,-24.52833276952635,3.1103123886599726
12.73116571,0.1765050746780465,-26.285055287038432,3.037289877274794
12.7359418,0.04757193759314373,-27.592641181398243,2.9140861711636297
12.74070457,-0.08908991009791666,-28.415105140947663,2.7440293323269693
12.74549399,-0.22875335699596364,-28.730541091308787,2.5321676283755843
12.75027008,-0.3671821921153471,-28.53193176835664,2.2850399002057062
12.7550329,-0.5007468730967911,-27.827371586679504,2.0103962887257527
12.75982232,-0.6264955236921527,-26.6396942300263,1.7168783593185828
12.76459842,-0.742185972536597,-25.005526432150255,1.4136692671111166
12.76936118,-0.8462852964903717,-22.973818138644468,1.1101263178519651
12.77415061,-0.9379428162587805,-20.603924502849264,0.8154097378387857
12.7789267,-1.0169412135475389,-17.96333505918751,0.5381222573722786
12.78368951,-1.0836289979455624,-15.125158711373173,0.2859739513659707
12.78847889,-1.1388365286560316,-12.165479517981517,0.06548562332587872
12.79325503,-1.1837774827940863,-9.16069801167454,-0.11825794914472484
12.79801779,-1.2199379993648078,-6.1849667349900805,-0.2617960469568782
12.80280722,-1.2489564387042429,-3.307817806616447,-0.3634151000248042
12.80758332,-1.2724974576164307,-0.5920657270059855,-0.4232032569111695
12.81234613,-1.2921246732577536,1.9079486028321828,-0.4430354406523058
12.8171355,-1.309176467573766,4.147725445528529,-0.42649041297845824
12.82191165,-1.3246494558022253,6.093557422050109,-0.3787037743255105
12.82667441,-1.339093852577951,7.723055136991041,-0.3061630443610832
12.83146384,-1.3525245198865572,9.02525542343457,-0.21645290864510672
12.83623993,-1.3643510079208658,10.00033571851768,-0.11796031644114766
12.84100274,-1.3733295074846419,10.658970831590752,-0.019550335986490697
12.84579217,-1.3775393447675355,11.02137825225154,0.06977550731112844
12.85056826,-1.374386415960958,11.116105068205442,0.14122627998092166
12.85533102,-1.3606357024067608,10.978613594434485,0.18656194690716563
12.86012045,-1.3324746556607387,10.649724172137148,0.1984151755310646
12.86489654,-1.2856087388048374,10.17397262084469,0.17058357960493145
12.86965936,-1.2153897156315188,9.597936957795936,0.09828234314618356
12.87444878,-1.1169763770125993,8.96858371881785,-0.021651562350363515
12.87922488,-0.9855262839417319,8.331678999294025,-0.19061082573437557
12.88398764,-0.8164157846066062,7.730303604202875,-0.4081303996267213
12.88877707,-0.6054840173212538,7.203505799891541,-0.6718647721817484
12.89355316,-0.34929485763006896,6.7851193678582025,-0.9776312791613802
12.89831597,-0.045408880464489626,6.5027691690497305,-1.3195185843279584
12.90310535,0.30734448440761314,6.377081356402359,-1.6900571767792323
12.90788149,0.7086061679761815,6.421110768489835,-2.080446502044477
12.91264425,1.15625104652514,6.639993877010913,-2.480831263844528
12.91743368,1.6461898659896577,7.03083186716497,-2.8806176205210874
12.92220977,2.172223850396281,7.582804873850106,-3.2688185540982175
12.92697259,2.725965991315504,8.277514912778267,-3.634416668121063
12.93176201,3.2968418553152565,9.08955145902897,-3.9667320767114482
12.93653811,3.872180726087089,9.987269781919219,-4.255782845203173
12.9413142,4.437405021804917,10.933767933239395,-4.492625582836199
12.94609029,4.976322251295728,11.88804365087773,-4.669664231209513
12.95086639,5.471519395545564,12.80630739194685,-4.780915822411663
12.9556292,5.904854671753297,13.643422333741562,-4.82222301623095
12.96041863,6.258036356488544,14.354436644305027,-4.791404633492015
12.96519472,6.513272968587853,14.896167875348242,-4.688337291662465
12.96995748,6.65397394151444,15.228794281582568,-4.51496371002262
12.97474691,6.66547526815312,15.3174035703759,-4.275226254300997
12.979523,6.535760784305489,15.133446392983593,-3.9749276215218514
12.9842991,6.256147036780136,14.656040163004892,-3.621523880080498
12.98907524,5.8218982748520425,13.873068882243858,-3.2238580347527113
12.99385134,5.232738183230242,12.782026895959767,-2.791844652787743
12.9986141,4.4932266756945385,11.390559157032296,-2.3361177761348535
13.00340352,3.6129734801151625,9.716657823277444,-1.8676553653722248
13.00817962,2.6066653902658325,7.788484881050467,-1.397393933289642
13.01294243,1.4938908717268564,5.6438028564461975,-0.9358469154089005
13.0177318,0.2987540154315578,3.329010251252206,-0.4927397840944242
13.02250795,-0.9507206540454515,0.8977946867426346,-0.07667402325900971
13.02727071,-2.223380677682834,-1.590565698327622,0.3051691026339938
13.03206014,-3.4859129478873263,-4.073203917761263,0.6472754874155119
13.03683623,-4.703952733605772,-6.485902249673361,0.945987967627148
13.04159904,-5.843291565268503,-8.765483270290268,1.199632863032824
13.04638847,-6.87113255017293,-10.852255473439408,1.4085790691085236
13.05116456,-7.757335136782452,-12.692403649419663,1.5752275383359737
13.05592738,-8.475587744046797,-14.240207632614515,1.7039311982692131
13.06071675,-9.004447141722167,-15.459973222255387,1.8008475297635844
13.06549285,-9.32818887137525,-16.32756746182847,1.8737277293511552
13.07025566,-9.437423357256046,-16.831467240141574,1.9316472546943166
13.07504509,-9.329446666112219,-16.97325419142979,1.9846826514684024
13.07982118,-9.008311487199451,-16.767518195314604,2.043539278930614
13.08458394,-8.484621060058775,-16.24116427811655,2.119134405229438
13.08937337,-7.775064869819247,-15.432151143224946,2.222140690198286
13.09414946,-6.901728574026567,-14.387721527864292,2.362496857520105
13.09891227,-5.891220816095879,-13.162212819715627,2.5488956475715367
13.1037017,-4.773665877310446,-11.814559001546925,2.7882636207502234
13.10847779,-3.5816136235646634,-10.405610715346059,3.085252190309169
13.11324061,-2.348917313128787,-8.995408328653845,3.441763445366298
13.11802998,-1.109626026109052,-7.640543198500068,3.8565372384949472
13.12280608,0.10306767468723987,-6.3917352101565035,4.3248273888611095
13.12756889,1.2577919547093057,-5.291740841867703,4.838194594947949
13.13235832,2.3258472054259354,-4.373686499411366,5.384441662509842
13.13713441,3.281928242582578,-3.6598979749606078,5.947712800670409
13.14189722,4.104707667069722,-3.1612701102467766,6.508772935440363
13.1466866,4.777276642507184,-2.8771926487134563,7.0454753040268745
13.15146269,5.2874438282911,-2.796020360034172,7.5334163000508925
13.1562255,5.627896488560978,-2.896049210544498,7.946766095771212
13.16101493,5.79623006552149,-3.14693687369992,8.259252559418272
13.16579102,5.794853987156221,-3.511486270988026,8.445265090519976
13.17055384,5.630782401497505,-3.9476959266339153,8.481034947162062
13.17534321,5.315319093835195,-4.410971276776368,8.345840187445594
13.18011936,4.863646232525191,-4.856386985561218,8.023177206935546
13.18488212,4.294326996989398,-5.2408917836434314,7.5018376292629245
13.18967154,3.62873277565143,-5.52535406013303,6.776829428512342
13.19444764,2.8904066435984226,-5.67635782485268,5.850084858064626
13.19921045,2.104376263712571,-5.667673883733953,4.7309050516024485
13.20399982,1.296431047401722,-5.481349128380784,3.436101835855714
13.20877597,0.4923800990510677,-5.108376647248731,1.9898108767966505
13.21353873,-0.2826910788273034,-4.548929865222962,0.4229660557619785
13.21832816,-1.0051460203453253,-3.8121641559548083,-1.2275579323852654
13.22310425,-1.6534849652965642,-2.91560851830612,-2.9201102774317014
13.22786707,-2.208974368242298,-1.8841872573504805,-4.609694590427607
13.23265644,-2.6561977968500226,-0.7489265656770209,-6.249608203733997
13.23743258,-2.983508361918319,0.4545870293055665,-7.793219671469211
13.24219535,-3.1833642979678487,1.687920589024692,-9.19580324248416
13.24698477,-3.252531839883341,2.911600040830206,-10.41634187646023
13.25176087,-3.1921431914979026,4.086924218597492,-11.419207316350416
13.25652368,-3.007602169745118,5.177707199219072,-12.175627751226887
13.26131311,-2.7083360316974057,6.151874171163331,-12.664862006837959
13.2660892,-2.3073989914057393,6.982845067331473,-12.87501509937076
13.27085196,-1.820940698482933,7.650651930571848,-12.803452947614316
13.27564139,-1.267560736533438,8.142749618300492,-12.45680120647064
13.28041748,-0.6675769455140219,8.454493991043726,-11.850540261569273
13.28518029,-0.042240137436010405,8.589276228337202,-11.008231772609797
13.28996972,0.5870698757243378,8.558315681306803,-9.960430022022452
13.29474582,1.1996319996224578,8.380126296253655,-8.743343542824432
13.29950858,1.7761223069028516,8.079682917111954,-7.397319601363784
13.304298,2.2992736522531496,7.687323574670223,-5.96522679403761
13.3090741,2.754431463923872,7.2374321000951305,-4.490809965938058
13.31383691,3.1299861001617892,6.766951969274483,-3.0170875158432113
13.31862634,3.4176680580207566,6.313787111288385,-1.5848545096912898
13.32340243,3.612698497919319,5.915148437479749,-0.23134641079821494
13.32816524,3.7137937882693874,5.605906045019941,1.0108918974580745
13.33295462,3.7230288967588088,5.417006458823032,2.114898354204823
13.33773076,3.6455702818798463,5.374011999973381,3.05992567622998
13.34249352,3.489294272138648,5.495815547980265,3.831803522969944
13.34728295,3.264311528963194,5.793578745158014,4.423033058597197
13.35205904,2.9824218265086775,6.2699352142793465,4.8326269280237675
13.35682186,2.656525834168491,6.918492760453315,5.065717190504882
13.36161123,2.300021719217364,7.723659935509951,5.132961627349471
13.36638738,1.9262141550787548,8.660812884065152,5.049784820629718
13.37115014,1.5477617739543272,9.696808197356892,4.835494369059769
13.37593957,1.176186370659421,10.790836731285081,4.512314559839252
13.38071566,0.8214634362734173,11.895602194330605,4.104379843957509
13.38547847,0.4917090952346437,12.958797017148335,3.636728741477101
13.39026785,0.1929734712826866,13.924836859556663,3.1343355742178507
13.39504399,-0.07085484007879442,14.73680441504611,2.6212129797409554
13.39980675,-0.2980339121224627,15.338543298726258,2.1196128270719514
13.40459618,-0.48884916028531106,15.676834146002234,1.6493472608236965
13.40937227,-0.6454002410787725,15.703578026983388,1.2272454563795867
13.41413509,-0.7713090104927912,15.377907329709236,0.8667555459241967
13.41892446,-0.8713667186221069,14.668141804979445,0.577695297968275
13.42370061,-0.9511410417613283,13.553507869647849,0.36614968475810594
13.42846337,-1.0165649895754951,12.025542825936503,0.23450860377685373
13.43325279,-1.0735301386112337,10.089112564278414,0.18163385281046643
13.43802889,-1.1275060135331059,7.762981658234438,0.20314107669553136
13.44280498,-1.183205753717318,5.079888489346246,0.29177984144206043
13.44758108,-1.2443154881600609,2.0860949690217914,0.43789322137827846
13.45235722,-1.313301176582806,-1.159599804355451,0.6299372230441174
13.45711998,-1.391302198232748,-4.58737055162546,0.8550398897982184
13.46190941,-1.4781158613233827,-8.118366487898125,1.0995798968184238
13.4666855,-1.5722714683084005,-11.667142544913522,1.3497647548262268
13.47144832,-1.6711868350050643,-15.144438588074921,1.5921893538292684
13.47623774,-1.7713945158593343,-18.46020276647037,1.8143565212469313
13.48101384,-1.8688198514371441,-21.526737504063174,2.0051426470731797
13.4857766,-1.959088923687469,-24.26183430227339,2.1551934196059683
13.49056602,-2.0378423070337046,-26.591758009559054,2.2572374183416892
13.49534212,-2.1010307960880374,-28.453943681205402,2.3063085866379787
13.50010493,-2.145172324912073,-29.79928001982389,2.299872191304634
13.50489436,-2.16755462673291,-30.59387214866452,2.237852614926706
13.50967045,-2.166374743688836,-30.82020186261072,2.1225651330408564
13.51443326,-2.1408130317532454,-30.47763384329129,1.958557470659101
13.51922264,-2.0910448579040555,-29.582249739820817,1.7523700576490473
13.52399873,-2.0181972453133032,-28.16602646586131,1.5122262928521535
13.52876154,-1.9242601485032327,-26.275408296577815,1.2476658513341152
13.53355097,-1.8119629826478572,-23.9693519776248,0.9691353572290922
13.53832706,-1.6846268652671337,-21.316947887003163,0.6875517451494442
13.54308988,-1.5460022249615655,-18.39473679340684,0.4138543122858141
13.54787925,-1.4001003772515186,-15.2838503622469,0.1585616917438799
13.5526554,-1.2510265642132867,-12.067104559666522,-0.0686503525182369
13.55741816,-1.1028208418100245,-8.826169312939166,-0.25933533452516194
13.56220759,-0.9593120356765967,-5.638926277239755,-0.4066131561478859
13.56698368,-0.8239887330435293,-2.5771105307438456,-0.5054463093765488
13.57174649,-0.699889941278088,0.29568727593363026,-0.5528457414293977
13.57653587,-0.5895166651510686,2.9256031040087445,-0.5479993327133739
13.58131201,-0.4947643006136327,5.269632961437366,-0.4923184940287773
13.58607477,-0.4168745176146988,7.296306316118001,-0.3894011114702381
13.5908642,-0.35640435549123883,8.985908666280038,-0.2449119087347179
13.59564029,-0.31320972239826056,10.33028063011674,-0.06638416473699939
13.60040311,-0.2864404562383999,11.332236108726589,0.1370504967186608
13.60519253,-0.2745445678226145,12.004653779494182,0.35499494622145744
13.60996863,-0.2752801654908439,12.369304135923734,0.5761704097416948
13.61473139,-0.28573471612960744,12.455478488124449,0.7888377677809854
13.61952082,-0.3023525791110833,12.298486976468656,0.9812411313450753
13.62429691,-0.3209730175803171,11.93809011512729,1.14205743555
13.62905972,-0.33688201228864,11.41692320256458,1.2608352466270054
13.63384915,-0.3448820400624498,10.778965737720544,1.328406031358771
13.63862524,-0.3393843991379743,10.068099428751783,1.3372518191247285
13.64338805,-0.31452855096094817,9.32678913199805,1.2818145302751085
13.64817743,-0.26433221498639564,8.594911720560146,1.158734283431354
13.65295352,-0.18287456213590464,7.908748988672776,0.9670067213414527
13.65771634,-0.06451284131431048,7.3001526954692,0.7080527216287927
13.66250576,0.09586974688618016,6.795883083993048,0.3856976008199493
13.66728186,0.3025899832869655,6.417116904790376,0.006060817697621407
13.67204467,0.5588724489335601,6.179117224835395,-0.4226390515827483
13.67683404,0.8665502786952519,6.091055079066186,-0.8903559128098892
13.68161019,1.2257725914035225,6.155972171280928,-1.3855533506723923
13.68637295,1.6347345318703834,6.370874102133968,-1.89559426364124
13.69116238,2.089447348800605,6.7269446735784255,-2.407168246159577
13.69593847,2.583566539968388,7.20987333485127,-2.9067411186222896
13.70070128,3.1082956848939793,7.800289434122997,-3.3810106605687227
13.70549071,3.652382066468997,8.474298283158523,-3.817352740413604
13.7102668,4.202217526302578,9.204114833901764,-4.20424256535523
13.7150429,4.742054241595612,9.958790770451836,-4.531636618872462
13.71981899,5.254340361396832,10.705029876866286,-4.791301959417362
13.72459508,5.720174869286672,11.408084576804848,-4.977080903095368
13.72937123,6.119874876629706,12.032723576662294,-5.0850807109597005
13.73414732,6.433642072711089,12.544256699347024,-5.113779770875611
13.73892342,6.6423085877012555,12.909598486334103,-5.064043959812612
13.74368623,6.728136438188064,13.09834727061667,-4.939049549572723
13.74847561,6.675639463930144,13.083851545937646,-4.744112483608527
13.7532517,6.472392689306554,12.844230976598306,-4.4864283898785855
13.75801451,6.109791704989852,12.363315715988277,-4.174733146376486
13.76280394,5.583724093182988,11.631465238677167,-3.81889935716481
13.76758003,4.895116060145982,10.646227038881927,-3.42948860504754
13.77234285,4.0503202141724035,9.412796669034503,-3.0172820399042934
13.77713222,3.0613148269730535,7.944243963467486,-2.592812588595215
13.78190837,1.9456909631316825,6.261476056732154,-2.1659211521181203
13.78667113,0.7264115149751873,4.39291593837114,-1.7453570660382391
13.79146055,-0.56866471943066,2.373885599840309,-1.338440242996028
13.79623665,-1.9074905056711418,0.24569502839542437,-0.9507990191879908
13.80099946,-3.2547547066508655,-1.945547979565222,-0.5861938879492481
13.80578889,-4.5729979647825285,-4.1503774391198975,-0.2464331099075746
13.81056498,-5.82388233527421,-6.317613270746629,0.0686182062333531
13.81532774,-6.9695671222411075,-8.396150055910558,0.36093834571929373
13.82011717,-7.974134028089995,-10.336817181364957,0.6341654993593702
13.82489326,-8.804997848417816,-12.094226374132255,0.8933411706632127
13.82965608,-9.434235378100759,-13.628516293648277,1.1445940249283737
13.8344455,-9.839765954328076,-14.906903435011833,1.394779577883096
13.8392216,-10.00632267374103,-15.904954838672943,1.6510916875051473
13.84398441,-9.92616347477103,-16.6075106493016,1.9206611113748064
13.84877378,-9.59948490822989,-17.00920234991789,2.2101547099482395
13.85354988,-9.034517146720274,-17.11453418738523,2.5253867060874295
13.85831269,-8.247295342839985,-16.93751946590849,2.8709513510436118
13.86310212,-7.261118817896696,-16.500888447869915,3.2498849505701837
13.86787821,-6.105724834047614,-15.834908892918605,3.6633647912204483
13.87264102,-4.816216975316345,-14.975882121026052,4.110453037978254
13.8774304,-3.431798656769025,-13.964395385122849,4.587894806571647
13.88220654,-1.994369487692614,-12.843424048505245,5.08998089662148
13.8869693,-0.5470459427367753,-11.65638376439309,5.608486708067253
13.89175873,0.8673318722066381,-10.445233267419278,6.132699293963792
13.89653483,2.207648331959573,-9.248722785737206,6.649543932224941
13.90129764,3.435861630142556,-8.100872195795475,7.143819654890908
13.90608701,4.518208082884547,-7.029747871046608,7.598549664755387
13.91086316,5.426223865400909,-6.056588845127334,7.995447567111598
13.91562592,6.137556019810628,-5.195312589335093,8.315494140546315
13.92041535,6.636543975880014,-4.452409581523435,8.539612389856131
13.92519144,6.9145618220150515,-3.8272150951261157,8.649421360166986
13.92995425,6.970119902374787,-3.312527370778595,8.628042177533
13.93474368,6.808731886185391,-2.8955245243383865,8.460923570130252
13.93951977,6.4425602212118225,-2.5589189920902755,8.136649248942607
13.94428259,5.889858848727456,-2.282278608624658,7.647686448853009
13.94907196,5.174237237600172,-2.0434379136046354,6.991034001836343
13.95384811,4.323774174753826,-1.8199220900182844,6.168729768936052
13.95861087,3.3700132521069848,-1.590308880445289,5.188181218937967
13.96340029,2.3468744987789947,-1.3354604919068782,4.062289392828032
13.96817639,1.2895180199555671,-1.0395672722794957,2.809345229471849
13.9729392,0.23319578734463658,-0.6909571008028318,1.4526878324049992
13.97772858,-0.7878730563771591,-0.28263823198662197,0.020126143259130737
13.98250472,-1.7415697134692634,0.1874419668611727,-1.4568620146955304
13.98726748,-2.598854813553614,0.7164250422417919,-2.9441271216896516
13.99205691,-3.3346307511577344,1.2968444679719124,-4.406003237423433
13.996833,-3.928462327381576,1.9171785222160627,-5.80657280213335
14.00159582,-4.365134510574749,2.5626162071242597,-7.110983856066351
14.00638524,-4.6350303752376485,3.2159898262648,-8.286756468452399
14.01116134,-4.734317114916396,3.8588208089507097,-9.305012079351973
14.01592415,-4.664933573874858,4.472421201832069,-10.141560132622816
14.02071352,-4.4343791227424445,5.038992153482705,-10.77778184810404
14.02548962,-4.0553109821947375,5.5426627514022515,-11.201262219381352
14.03025243,-3.5449651153237824,5.970417532547206,-11.406138268218566
14.03504186,-2.924423971961864,6.31286837359043,-11.393152305262728
14.03981795,-2.217761691327326,6.564835541248405,-11.169420048816955
14.04458076,-1.4511028513980668,6.725712668063174,-10.747941630890116
14.04937014,-0.651633920933712,6.799600672274641,-10.146896848831068
14.05414628,0.15339276964807602,6.795205723642363,-9.388774125669624
14.05890904,0.9376240684890887,6.725506005333157,-8.499386082255748
14.06369847,1.6765044349429694,6.6072010803950505,-7.506824284107319
14.06847456,2.348076092108537,6.459966034038116,-6.440402522321923
14.07323738,2.9336539998895645,6.305540121332641,-5.3296327824855885
14.0780268,3.418354194787042,6.166686259615975,-4.20327161261514
14.0828029,3.7914600625912973,6.066063175636162,-3.0884675391870218
14.08756566,4.04661760645466,6.025056127468471,-2.01003293533355
14.09235509,4.181857596889893,6.062614655968554,-0.9898565781470446
14.09713118,4.199449414352801,6.194146619848278,-0.04646618180034978
14.10189399,4.1055981217797095,6.430516758219063,0.8052564504454965
14.10668342,3.9100025012450366,6.777195221114229,1.554211249159055
14.11145951,3.625297123003874,7.233597001274211,2.193075957865882
14.11622232,3.26640569127901,7.7926471282875225,2.7181767002429478
14.1210117,2.8498357242836114,8.440599026769183,3.1292512686567293
14.12578779,2.392946001528406,9.157124806833933,3.4291262142484387
14.13055061,1.9132181921651434,9.915686687505973,3.6233303525362577
14.13534003,1.4275627724675173,10.68418850980866,3.7196674528302833
14.14011613,0.9516868798010654,11.42589565589526,3.727769713544284
14.14487894,0.4995482708880294,12.100600965036309,3.6586513188901915
14.14966837,0.08291519430933642,12.666003770169967,3.524278192380827
14.15444446,-0.28895309495211724,13.07925933613038,3.337166328120879
14.15920722,-0.6094960791035603,13.298647139886498,3.110017137869166
14.16399665,-0.8749088470257183,13.285298975540758,2.855394438324879
14.16877274,-1.0840690332259049,13.004922171991687,2.5854443019792637
14.17353555,-1.238342704951971,12.42944964429076,2.311656198514305
14.17832498,-1.3412836202455476,11.53854738735535,2.0446617593867282
14.18310108,-1.398245198727488,10.320911617708335,1.7940661362994028
14.18786389,-1.4159286226671621,8.775292230155404,1.5683063097416792
14.19265326,-1.4018934968482464,6.911186605600929,1.3745308789450963
14.19742941,-1.3640592105527063,4.749158019758001,1.2184968925441573
14.20219217,-1.310225354788232,2.3207457879198685,1.1044811976718047
14.2069816,-1.247638119286954,-0.3320504612696178,1.035206560738299
14.21175769,-1.182626507336871,-3.157712809758775,1.0117862560606625
14.2165205,-1.1203275718120569,-6.096555302867635,1.0336943895248647
14.22130993,-1.0645139177035454,-9.08244531515777,1.0987719051933085
14.22608602,-1.0175297237361351,-12.044840239408076,1.203278820588691
14.23084878,-0.980333832340086,-14.911066465897813,1.342001112547417
14.23563821,-0.952640482788319,-17.608752928461094,1.5084162745848468
14.2404143,-0.9331406933572609,-20.06832047541794,1.6949162012158383
14.24517712,-0.9197810261530568,-22.22542205611114,1.8930811157899115
14.24996654,-0.9100723945987801,-24.02322808384255,2.0939944933352597
14.25474264,-0.9014003722888518,-25.414456739865148,2.288586289983197
14.2595054,-0.8913104003448049,-26.363060120457323,2.467989870607535
14.26429482,-0.877746124404797,-26.845493108115747,2.6238966263417316
14.26907097,-0.8592260746653324,-26.8515114777169,2.7488915585145373
14.27383373,-0.8349518986630196,-26.384467768556437,2.8367533578030355
14.27862316,-0.8048490281203937,-25.461096645339104,2.8827038778910885
14.28339925,-0.7695467666955963,-24.110804695277736,2.883594348052353
14.28816207,-0.730308583717652,-22.374501752582944,2.8380189611084012
14.29295144,-0.6889248829802994,-20.303030752272736,2.746350252496953
14.29772758,-0.6475802425631307,-17.955269650134415,2.610694603632187
14.30249035,-0.6087058010345547,-15.395991163315644,2.434770047092887
14.30727977,-0.5748256751431551,-12.693573428276261,2.2237122237958733
14.31205587,-0.5484044451921259,-9.917657026137483,1.9838177446298384
14.31681868,-0.531701121344166,-7.136841464588134,1.7222372044975347
14.32160811,-0.5266337447329978,-4.4165076808164425,1.4466325563868825
14.3263842,-0.5346578523484231,-1.8168431552611661,1.164815370000681
